"Time (s)","Linear Acceleration x (m/s^2)","Linear Acceleration y (m/s^2)","Linear Acceleration z (m/s^2)","Absolute acceleration (m/s^2)"
5.539413100E-2,0.000000000E0,0.000000000E0,0.000000000E0,0.000000000E0
6.030663100E-2,-5.307048559E-3,-7.470798492E-2,-1.888036728E-2,7.723934259E-2
6.521918300E-2,-3.129243851E-3,-2.008905411E-1,-3.356003761E-2,2.036984973E-1
7.013168300E-2,8.012989163E-2,-1.199693680E-1,-3.873562813E-2,1.493783708E-1
7.504418300E-2,2.074058354E-1,4.736328125E-2,-5.953907967E-2,2.209193585E-1
7.995673500E-2,2.885830402E-1,1.903018951E-1,-4.412603378E-2,3.484854219E-1
8.486923500E-2,2.830964327E-1,2.131481171E-1,1.839733124E-2,3.548438696E-1
8.978173500E-2,2.391363978E-1,2.099075317E-1,1.417989731E-1,3.483594945E-1
9.469428700E-2,1.581994742E-1,1.460838318E-1,1.740710735E-1,2.768904083E-1
9.960678700E-2,6.939570606E-2,9.438610077E-2,7.929039001E-2,1.414618888E-1
1.045192870E-1,3.453402594E-2,4.590797424E-2,-5.085444450E-2,7.672232773E-2
1.094318390E-1,2.164904028E-2,3.904628754E-2,-1.874585152E-1,1.927018122E-1
1.143443390E-1,-1.370637119E-2,7.718849182E-2,-2.657699585E-1,2.770913184E-1
1.192568390E-1,-2.030700445E-3,9.985733032E-2,-3.598864079E-1,3.734887371E-1
1.241693910E-1,-7.184848189E-2,5.710220337E-2,-4.611938000E-1,4.702367352E-1
1.290818910E-1,-2.032804340E-1,2.007675171E-2,-5.771465302E-1,6.122288200E-1
1.339943910E-1,-3.149576783E-1,-1.062641144E-1,-6.969871521E-1,7.721926517E-1
1.389068910E-1,-3.887404799E-1,-2.769327164E-1,-7.765748501E-1,9.115258570E-1
1.438194430E-1,-4.001776278E-1,-3.114318848E-1,-6.596777439E-1,8.320496851E-1
1.487319430E-1,-2.432475686E-1,-1.463394165E-1,-4.208724499E-1,5.076595547E-1
1.536444950E-1,-6.360614300E-2,-2.698898315E-4,-2.007486820E-1,2.105845379E-1
1.585569950E-1,3.201928735E-2,1.236047745E-1,-4.716825485E-2,1.361184018E-1
1.634694950E-1,-8.021762967E-2,2.472095490E-1,5.537605286E-2,2.657328290E-1
1.683820470E-1,-2.727438509E-1,2.470417023E-1,9.354233742E-2,3.796959043E-1
1.732945470E-1,-5.455336571E-1,2.452316284E-1,6.082272530E-2,6.012028996E-1
1.782070470E-1,-8.300191164E-1,2.165517807E-1,-6.578135490E-2,8.603217968E-1
1.831196000E-1,-1.006644011E0,1.715412140E-1,-3.721566200E-1,1.086857443E0
1.880321000E-1,-9.821752310E-1,1.923332214E-1,-9.271217585E-1,1.364263540E0
1.929446000E-1,-7.871106267E-1,1.125431061E-1,-7.920556068E-1,1.122301730E0
1.978571520E-1,-6.403204799E-1,-5.184268951E-2,-2.270991802E-1,6.813750942E-1
2.027696520E-1,-4.987027049E-1,6.679534912E-3,-1.191926003E-2,4.988898404E-1
2.076821520E-1,-3.156281114E-1,1.814022064E-1,-9.069967270E-2,3.751723548E-1
2.125947040E-1,-1.054399610E-1,3.067064285E-1,-1.275072098E-1,3.484888911E-1
2.175072040E-1,-3.981590271E-2,2.936429977E-1,1.591753960E-2,2.967572818E-1
2.224197040E-1,-4.639840126E-2,3.136548996E-1,1.508538723E-1,3.511254740E-1
2.273322560E-1,1.241686344E-1,3.729619980E-1,1.424491405E-1,4.181031683E-1
2.322447560E-1,2.906281650E-1,4.170417786E-1,1.133077145E-1,5.207947902E-1
2.371572560E-1,2.900206745E-1,3.972482681E-1,1.482870579E-1,5.137190182E-1
2.420697560E-1,1.587181687E-1,3.965549469E-1,2.651917934E-1,5.027663178E-1
2.469823080E-1,-5.244547129E-2,4.118614197E-1,3.203582764E-1,5.244137505E-1
2.518948080E-1,-2.147794366E-1,4.215583801E-1,2.736513615E-1,5.465590013E-1
2.568073600E-1,-3.513301611E-1,4.584026337E-1,2.280967236E-1,6.209621341E-1
2.617198600E-1,-4.419348240E-1,5.100812912E-1,1.953611374E-1,7.026060676E-1
2.666323600E-1,-4.687626958E-1,4.734487534E-1,2.263641357E-1,7.036568119E-1
2.715449120E-1,-3.485352993E-1,4.440813065E-1,2.237946987E-1,6.072636403E-1
2.764574120E-1,-2.127595544E-1,4.546318054E-1,1.625723839E-1,5.276234325E-1
2.813699120E-1,-2.407228947E-2,6.097545624E-1,4.147386551E-2,6.116372969E-1
2.862824640E-1,2.145379186E-1,7.730989456E-1,-1.363179684E-1,8.138126853E-1
2.911949640E-1,4.325201809E-1,1.062056541E0,-2.762546539E-1,1.179556882E0
2.961074640E-1,5.794463754E-1,1.413562775E0,-4.312975407E-1,1.587430436E0
3.010199640E-1,8.006555438E-1,1.756373405E0,-5.122966766E-1,1.997084055E0
3.059325160E-1,9.966939688E-1,2.067321777E0,-3.581874371E-1,2.322825099E0
3.108450160E-1,1.196377158E0,2.346877098E0,6.562137604E-2,2.635043943E0
3.157575680E-1,1.434715748E0,2.661125183E0,5.306208134E-1,3.069455158E0
3.206700680E-1,1.701251626E0,3.100929260E0,8.968355656E-1,3.648881117E0
3.255825680E-1,2.099197865E0,3.534633636E0,1.240797758E0,4.294164144E0
3.304951200E-1,2.371033907E0,3.924782753E0,1.540725231E0,4.837308723E0
3.354076200E-1,2.544074535E0,4.272214890E0,1.723202229E0,5.262467218E0
3.403201200E-1,2.673041582E0,4.634265900E0,1.786241293E0,5.640233123E0
3.452326720E-1,2.820762634E0,4.968682289E0,1.745753765E0,5.974291735E0
3.501451720E-1,2.914690733E0,5.128044128E0,1.520202160E0,6.091245625E0
3.550576720E-1,2.890487194E0,5.094530106E0,1.190991879E0,5.977258140E0
3.599701720E-1,2.757335901E0,5.010744095E0,7.481491566E-1,5.768031277E0
3.648827250E-1,2.525812864E0,4.908638000E0,2.946503162E-1,5.528225434E0
3.697952250E-1,2.295697927E0,4.876203537E0,-1.978929043E-1,5.393213468E0
3.747077770E-1,2.042340517E0,4.844445229E0,-5.923165083E-1,5.290618414E0
3.796202770E-1,1.861748457E0,4.726328850E0,-8.754706383E-1,5.154681421E0
3.845327770E-1,1.664872408E0,4.549098969E0,-9.795450568E-1,4.942227239E0
3.894453290E-1,1.432609200E0,4.303977013E0,-9.452536106E-1,4.633583023E0
3.943578290E-1,1.226490736E0,4.031746864E0,-7.555226684E-1,4.281363896E0
3.992703290E-1,1.041275501E0,3.765460968E0,-5.156692266E-1,3.940668182E0
4.041828810E-1,8.695328832E-1,3.499925613E0,-1.520047188E-1,3.609525200E0
4.090953810E-1,7.436636686E-1,3.244237900E0,2.548408508E-1,3.338122086E0
4.140078810E-1,6.366583109E-1,2.988546371E0,6.227371693E-1,3.118420241E0
4.189204330E-1,5.291126966E-1,2.595630646E0,8.869402409E-1,2.793550015E0
4.238329330E-1,4.376917481E-1,2.114311218E0,1.070761442E0,2.410065572E0
4.287454330E-1,3.313544691E-1,1.630568504E0,1.192638040E0,2.047177307E0
4.336579330E-1,3.070707917E-1,1.111157417E0,1.395763636E0,1.810281581E0
4.385704850E-1,3.072180152E-1,5.894279480E-1,1.634782553E0,1.764744233E0
4.434829850E-1,3.768471479E-1,1.243381500E-1,1.765486836E0,1.809535166E0
4.483955370E-1,4.660527408E-1,-2.707557678E-1,1.820232749E0,1.898357475E0
4.533080370E-1,5.681996346E-1,-7.978048325E-1,1.916100979E0,2.151926192E0
4.582205370E-1,6.792670488E-1,-1.313412666E0,1.988704443E0,2.478185206E0
4.631330890E-1,7.575013638E-1,-1.817790985E0,1.898413062E0,2.735350898E0
4.680455890E-1,7.468237877E-1,-2.334753036E0,1.712564468E0,2.990266639E0
4.729580890E-1,6.768448353E-1,-2.847605705E0,1.509246826E0,3.293144875E0
4.778706410E-1,5.147088766E-1,-3.358777046E0,1.351035953E0,3.656720747E0
4.827831410E-1,3.674759269E-1,-3.830474854E0,1.228874326E0,4.039518321E0
4.876956410E-1,2.321554720E-1,-4.346094131E0,1.055350780E0,4.478414411E0
4.926081930E-1,3.497976065E-2,-4.950294018E0,9.027097225E-1,5.032049214E0
4.975206930E-1,1.347786933E-2,-5.606819630E0,8.070210814E-1,5.664617466E0
5.024331930E-1,1.399055123E-2,-6.289339066E0,6.596156955E-1,6.323849657E0
5.073457450E-1,9.308666736E-2,-7.076030254E0,5.641970634E-1,7.099097662E0
5.122582450E-1,1.760489792E-1,-7.861906052E0,4.576414227E-1,7.877181963E0
5.171707450E-1,1.797705293E-1,-8.697052956E0,3.274367154E-1,8.705071071E0
5.220832970E-1,1.734419316E-1,-9.550468445E0,2.445265055E-1,9.555172569E0
5.269957970E-1,1.352730095E-1,-1.039144230E1,2.462855577E-1,1.039524066E1
5.319082970E-1,-8.924359083E-2,-1.110185528E1,3.014260530E-1,1.110630509E1
5.368208500E-1,-4.785774648E-1,-1.174717808E1,4.129264653E-1,1.176417177E1
5.417333500E-1,-9.097442627E-1,-1.229025078E1,6.245990992E-1,1.233969298E1
5.466458500E-1,-1.321868896E0,-1.273921967E1,9.591921568E-1,1.284348491E1
5.515584020E-1,-1.614064693E0,-1.308550644E1,1.411113262E0,1.325997452E1
5.564709020E-1,-1.875440478E0,-1.333954811E1,1.856040239E0,1.359800376E1
5.613834540E-1,-1.973773479E0,-1.359471607E1,2.122579336E0,1.390026726E1
5.662959540E-1,-1.974600434E0,-1.395300484E1,2.175448418E0,1.425896093E1
5.712084540E-1,-1.901866674E0,-1.435421658E1,2.040501118E0,1.462273145E1
5.761209540E-1,-1.764715195E0,-1.466760254E1,1.848841190E0,1.488861974E1
5.810335060E-1,-1.681890249E0,-1.474707603E1,1.468782425E0,1.491517107E1
5.859460060E-1,-1.688619375E0,-1.465902328E1,8.523104191E-1,1.478055588E1
5.908585060E-1,-1.805764794E0,-1.451192093E1,1.723555624E-1,1.462485357E1
5.957710580E-1,-1.940232515E0,-1.442985153E1,-4.469224215E-1,1.456656641E1
6.006835580E-1,-2.056694984E0,-1.427003860E1,-8.915245533E-1,1.444502724E1
6.055960580E-1,-2.172270536E0,-1.406410599E1,-1.239899158E0,1.428478864E1
6.105086100E-1,-2.268303156E0,-1.383143616E1,-1.445556164E0,1.409054499E1
6.154211100E-1,-2.278792381E0,-1.354369259E1,-1.430811405E0,1.380839328E1
6.203336100E-1,-2.237904549E0,-1.327712250E1,-1.291293502E0,1.352618340E1
6.252461620E-1,-2.093679190E0,-1.296719551E1,-1.062162280E0,1.317800594E1
6.301586620E-1,-1.884574294E0,-1.249527168E1,-7.282683849E-1,1.265755938E1
6.350712140E-1,-1.677081943E0,-1.197869587E1,-4.005930722E-1,1.210215821E1
6.399837140E-1,-1.444411516E0,-1.137001801E1,-8.024156094E-2,1.146167845E1
6.448962140E-1,-1.150548697E0,-1.072904396E1,1.030825526E-1,1.079105058E1
6.498087660E-1,-9.452924728E-1,-1.002968121E1,2.197282016E-1,1.007652536E1
6.547212660E-1,-8.302541971E-1,-9.262705803E0,2.014661729E-1,9.302022868E0
6.596337660E-1,-8.025399446E-1,-8.447495461E0,9.427509457E-2,8.486055486E0
6.645463180E-1,-6.736295223E-1,-7.669701099E0,3.858003020E-2,7.699323354E0
6.694588180E-1,-4.298047423E-1,-6.888395309E0,1.720002294E-2,6.901812653E0
6.743713180E-1,-2.000409365E-1,-6.020218372E0,4.637932777E-2,6.023719505E0
6.792838700E-1,-9.863245487E-2,-5.098895073E0,1.352055669E-1,5.101640900E0
6.841963700E-1,-6.318259239E-2,-4.112716675E0,2.426429093E-1,4.120352663E0
6.891088700E-1,8.478820324E-2,-3.142670631E0,3.612816334E-1,3.164505041E0
6.940214220E-1,3.187325895E-1,-2.257160187E0,4.765303731E-1,2.328828841E0
6.989339220E-1,6.553322077E-1,-1.331637859E0,6.930538416E-1,1.637999792E0
7.038464220E-1,1.066145420E0,-3.470549583E-1,1.019885421E0,1.515677892E0
7.087589750E-1,1.368197441E0,8.366446495E-1,1.392385960E0,2.123835485E0
7.136714750E-1,1.667246819E0,2.116021156E0,1.777636409E0,3.227576287E0
7.185839750E-1,1.954373240E0,3.466725349E0,2.176655769E0,4.536032380E0
7.234965270E-1,2.213384867E0,4.912013054E0,2.597641230E0,5.981194259E0
7.284090270E-1,2.466275215E0,6.386997700E0,3.039034843E0,7.490793405E0
7.333215270E-1,2.761288643E0,7.931800842E0,3.408785582E0,9.064104959E0
7.382340790E-1,3.063133955E0,9.469778061E0,3.655579090E0,1.060295924E1
7.431465790E-1,3.291352272E0,1.108647156E1,3.740064621E0,1.215446152E1
7.480590790E-1,3.468163252E0,1.272413826E1,3.689807892E0,1.369476298E1
7.529716310E-1,3.537051678E0,1.438959122E1,3.646275043E0,1.525996041E1
7.578841310E-1,3.646339893E0,1.591369247E1,3.559617996E0,1.670964641E1
7.627966310E-1,3.763031006E0,1.728060150E1,3.492047310E0,1.802703484E1
7.677091830E-1,3.956652403E0,1.856494904E1,3.471901178E0,1.929680100E1
7.726216830E-1,4.174993992E0,1.977186203E1,3.477528334E0,2.050488494E1
7.775341830E-1,4.475744247E0,2.084690475E1,3.573251486E0,2.161929348E1
7.824467350E-1,4.775932312E0,2.178116989E1,3.718339443E0,2.260652427E1
7.873592350E-1,5.031260967E0,2.252770996E1,3.851015806E0,2.340174407E1
7.922717350E-1,5.187925339E0,2.299716568E1,3.940595150E0,2.390214402E1
7.971842870E-1,5.263542175E0,2.322915649E1,4.054286003E0,2.416062546E1
8.020967870E-1,5.287314415E0,2.328430939E1,4.323586464E0,2.426536951E1
8.070092870E-1,5.166692734E0,2.322287369E1,4.629510880E0,2.423693353E1
8.119218390E-1,4.976042747E0,2.296666336E1,4.951763153E0,2.401559047E1
8.168343390E-1,4.698562622E0,2.250231552E1,5.248648167E0,2.357920699E1
8.217468910E-1,4.403262138E0,2.184505844E1,5.521679878E0,2.295831537E1
8.266593910E-1,4.106286526E0,2.100530815E1,5.729570389E0,2.215654613E1
8.315718910E-1,3.799707651E0,1.994121552E1,5.871421814E0,2.113204790E1
8.364844430E-1,3.499554157E0,1.882304001E1,5.934172153E0,2.004415410E1
8.413969430E-1,3.176413774E0,1.759178162E1,5.878185272E0,1.881790230E1
8.463094430E-1,2.834220171E0,1.628889847E1,5.725533009E0,1.749693532E1
8.512219950E-1,2.491176844E0,1.487003231E1,5.526475906E0,1.605819912E1
8.561344950E-1,2.206268787E0,1.344104576E1,5.314013958E0,1.462080974E1
8.610469950E-1,2.040851355E0,1.200012398E1,5.104037285E0,1.319921385E1
8.659595470E-1,1.898867846E0,1.059061337E1,4.865029335E0,1.180827257E1
8.708720470E-1,1.749063969E0,9.255607605E0,4.689385414E0,1.052215912E1
8.757845470E-1,1.498099327E0,7.990440369E0,4.506865025E0,9.295335993E0
8.806970470E-1,1.279500604E0,6.783429146E0,4.230343819E0,8.096162152E0
8.856096000E-1,1.195255756E0,5.556314468E0,3.875206232E0,6.878843663E0
8.905221000E-1,1.118487835E0,4.340691566E0,3.523287296E0,5.701418392E0
8.954346520E-1,1.185441852E0,3.215464592E0,3.260596752E0,4.730325159E0
9.003471520E-1,1.286833525E0,2.120870590E0,2.965794802E0,3.866519286E0
9.052596520E-1,1.459039569E0,1.097386360E0,2.706375599E0,3.264586064E0
9.101722040E-1,1.626207829E0,9.469318390E-2,2.442617178E0,2.935966175E0
9.150847040E-1,1.789352179E0,-8.921041489E-1,2.311484337E0,3.056238026E0
9.199972040E-1,1.923081875E0,-1.784616470E0,2.161414385E0,3.399236971E0
9.249097560E-1,1.798705578E0,-2.614371300E0,1.931860447E0,3.715153272E0
9.298222560E-1,1.552622557E0,-3.453195095E0,1.624058247E0,4.119800767E0
9.347347560E-1,1.258454442E0,-4.310682297E0,1.279442310E0,4.669332080E0
9.396473080E-1,1.020541072E0,-5.194103241E0,9.919797182E-1,5.385558125E0
9.445598080E-1,8.094612956E-1,-6.075055122E0,8.533295393E-1,6.187866646E0
9.494723080E-1,6.173493266E-1,-6.918188572E0,8.410668373E-1,6.996416707E0
9.543848600E-1,3.859552741E-1,-7.755022526E0,8.854738474E-1,7.814947203E0
9.592973600E-1,1.167958677E-1,-8.602619171E0,1.036537170E0,8.665627916E0
9.642098600E-1,-7.908940315E-2,-9.444591522E0,1.273012400E0,9.530326580E0
9.691224120E-1,-1.550449133E-1,-1.025506496E1,1.560032964E0,1.037420355E1
9.740349120E-1,-1.430749893E-1,-1.111540318E1,1.839376211E0,1.126747368E1
9.789474640E-1,-1.175338626E-1,-1.193976212E1,2.134437799E0,1.212961493E1
9.838599640E-1,-4.987925291E-2,-1.272841835E1,2.373040676E0,1.294783548E1
9.887724640E-1,9.861826897E-3,-1.346732903E1,2.490015745E0,1.369559151E1
9.936850160E-1,-1.460355520E-2,-1.415206528E1,2.422287941E0,1.435787741E1
9.985975160E-1,-1.303357482E-1,-1.479972839E1,2.115543842E0,1.495073489E1
1.003510016E0,-2.319555283E-1,-1.542020988E1,1.684147835E0,1.551364013E1
1.008422568E0,-4.150166512E-1,-1.603056526E1,1.220199585E0,1.608229301E1
1.013335068E0,-7.180460691E-1,-1.650494576E1,8.010944128E-1,1.653996907E1
1.018247568E0,-1.112896562E0,-1.689206696E1,3.777374029E-1,1.693290142E1
1.023160120E0,-1.474059343E0,-1.716419411E1,-9.127914906E-2,1.722761568E1
1.028072620E0,-1.754828334E0,-1.743189240E1,-5.163275003E-1,1.752760363E1
1.032985120E0,-1.982136130E0,-1.766452217E1,-7.600069046E-1,1.779162212E1
1.037897672E0,-2.065305948E0,-1.785292053E1,-9.284628630E-1,1.799595242E1
1.042810172E0,-2.066630840E0,-1.796408081E1,-1.110271335E0,1.811661847E1
1.047722672E0,-2.062491417E0,-1.798656845E1,-1.224443793E0,1.814579230E1
1.052635225E0,-2.014428616E0,-1.793275452E1,-1.276039720E0,1.809060211E1
1.057547725E0,-1.936457276E0,-1.780771065E1,-1.279389381E0,1.795832015E1
1.062460225E0,-1.816559792E0,-1.760691071E1,-1.167501926E0,1.773883465E1
1.067372777E0,-1.673815966E0,-1.733294296E1,-1.102266908E0,1.744842583E1
1.072285277E0,-1.505827188E0,-1.707651138E1,-1.058953285E0,1.717545163E1
1.077197777E0,-1.312483191E0,-1.684923553E1,-9.796992540E-1,1.692864912E1
1.082110329E0,-1.100624204E0,-1.654590607E1,-8.618882895E-1,1.660485569E1
1.087022829E0,-9.198734760E-1,-1.615710449E1,-8.460297585E-1,1.620536822E1
1.091935329E0,-7.648839951E-1,-1.569968224E1,-9.124506712E-1,1.574476535E1
1.096847881E0,-6.372789145E-1,-1.523089981E1,-9.394298196E-1,1.527314512E1
1.101760381E0,-4.527897835E-1,-1.474101639E1,-9.178581238E-1,1.477650318E1
1.106672933E0,-3.445820808E-1,-1.417981339E1,-9.076201320E-1,1.421300879E1
1.111585433E0,-2.429730892E-1,-1.357119751E1,-8.897007704E-1,1.360249996E1
1.116497933E0,-2.196086049E-1,-1.290324211E1,-9.119288325E-1,1.293729103E1
1.121410433E0,-1.909904480E-1,-1.225460911E1,-8.789000511E-1,1.228757043E1
1.126322985E0,-9.772711992E-2,-1.155580139E1,-8.003838062E-1,1.158389877E1
1.131235485E0,6.225538254E-2,-1.088772869E1,-7.336117029E-1,1.091259355E1
1.136147985E0,1.958108842E-1,-1.015931606E1,-6.067181230E-1,1.017930016E1
1.141060537E0,2.839561999E-1,-9.406220436E0,-3.979033530E-1,9.418914008E0
1.145973037E0,3.411515653E-1,-8.632969856E0,-1.090762913E-1,8.640396436E0
1.150885589E0,3.601209521E-1,-7.782152176E0,1.842876077E-1,7.792659463E0
1.155798089E0,4.289234877E-1,-6.870561123E0,5.811459422E-1,6.908423562E0
1.160710589E0,5.377628803E-1,-5.838696003E0,1.003814697E0,5.948714473E0
1.165623141E0,7.292780876E-1,-4.648859978E0,1.446505189E0,4.923019692E0
1.170535641E0,9.842725992E-1,-3.351768494E0,1.960458398E0,4.005813490E0
1.175448141E0,1.302895188E0,-1.933599472E0,2.501021385E0,3.419276350E0
1.180360693E0,1.611156583E0,-4.139819145E-1,2.904155493E0,3.346838163E0
1.185273193E0,1.885670424E0,1.158937454E0,3.182567120E0,3.876547748E0
1.190185693E0,2.253545523E0,2.653797150E0,3.448744774E0,4.900504795E0
1.195098245E0,2.634303331E0,4.242523193E0,3.633445740E0,6.175798332E0
1.200010745E0,3.007567406E0,5.900818825E0,3.793929815E0,7.632760179E0
1.204923245E0,3.384431601E0,7.594925880E0,3.999034405E0,9.226567756E0
1.209835797E0,3.811854601E0,9.293553352E0,4.183879852E0,1.088141627E1
1.214748297E0,4.162376404E0,1.097975254E1,4.291236877E0,1.250180215E1
1.219660797E0,4.339042664E0,1.264143181E1,4.376201630E0,1.406357814E1
1.224573350E0,4.325886726E0,1.430949593E1,4.457864761E0,1.559960025E1
1.229485850E0,4.278507233E0,1.600046730E1,4.514648438E0,1.716690504E1
1.234398350E0,4.230420113E0,1.757102013E1,4.565735817E0,1.864089982E1
1.239310902E0,4.200689793E0,1.891169739E1,4.706853867E0,1.993621243E1
1.244223402E0,4.267937183E0,2.003256226E1,4.909780025E0,2.106240201E1
1.249135902E0,4.295775890E0,2.096730042E1,5.239845276E0,2.203491220E1
1.254048454E0,4.279095173E0,2.177080536E1,5.681394100E0,2.290320633E1
1.258960954E0,4.167467594E0,2.236177444E1,6.147369385E0,2.356282863E1
1.263873506E0,4.058389664E0,2.271889114E1,6.543722630E0,2.398830647E1
1.268786006E0,3.917706728E0,2.286145020E1,6.905553818E0,2.420084719E1
1.273698506E0,3.718652010E0,2.289459991E1,7.257976532E0,2.430368905E1
1.278611058E0,3.591965675E0,2.277526474E1,7.583053589E0,2.427174495E1
1.283523558E0,3.520318985E0,2.250088882E1,7.949182510E0,2.412202616E1
1.288436058E0,3.491241455E0,2.207135010E1,8.295736313E0,2.383594980E1
1.293348610E0,3.516433716E0,2.150091171E1,8.562189102E0,2.340866491E1
1.298261110E0,3.631706238E0,2.076817322E1,8.697535515E0,2.280687250E1
1.303173610E0,3.708237171E0,1.990458679E1,8.698150635E0,2.203636592E1
1.308086162E0,3.825223923E0,1.889645386E1,8.583848000E0,2.110428281E1
1.312998662E0,3.815722704E0,1.779720688E1,8.271384239E0,1.999290148E1
1.317911162E0,3.787834644E0,1.660551834E1,7.770301819E0,1.872080450E1
1.322823714E0,3.679679871E0,1.532517052E1,7.168135166E0,1.731424434E1
1.327736214E0,3.565698147E0,1.404832363E1,6.468152046E0,1.587156549E1
1.332648714E0,3.415235043E0,1.271422100E1,5.694719315E0,1.434381658E1
1.337561266E0,3.281098366E0,1.140067768E1,4.890934467E0,1.283208081E1
1.342473766E0,3.129963875E0,1.011356354E1,4.135452271E0,1.136586146E1
1.347386266E0,2.981215239E0,8.896686554E0,3.449518442E0,9.996892188E0
1.352298818E0,2.870833635E0,7.707583427E0,2.842774391E0,8.702292473E0
1.357211318E0,2.772763252E0,6.546689034E0,2.336986065E0,7.483906548E0
1.362123818E0,2.663160324E0,5.423800468E0,1.954203367E0,6.350507478E0
1.367036370E0,2.465257168E0,4.381953239E0,1.650004625E0,5.291646470E0
1.371948870E0,2.238503218E0,3.404240608E0,1.416327000E0,4.313436327E0
1.376861422E0,2.049227715E0,2.454683304E0,1.269128084E0,3.440274763E0
1.381773922E0,1.903940678E0,1.535481453E0,1.248615980E0,2.746221998E0
1.386686422E0,1.756787062E0,6.058521271E-1,1.290015697E0,2.262188781E0
1.391598975E0,1.617029667E0,-3.534002304E-1,1.371935606E0,2.149856733E0
1.396511475E0,1.467491984E0,-1.234944344E0,1.470637679E0,2.416897896E0
1.401423975E0,1.350738645E0,-2.067790031E0,1.576679707E0,2.930216613E0
1.406336527E0,1.228307962E0,-2.885607243E0,1.687792778E0,3.561476389E0
1.411249027E0,1.145421386E0,-3.638444424E0,1.777820945E0,4.208433828E0
1.416161527E0,1.042003155E0,-4.362377167E0,1.825289011E0,4.842291306E0
1.421074079E0,9.130845070E-1,-5.038461685E0,1.858487844E0,5.447366018E0
1.425986579E0,8.086204529E-1,-5.693161964E0,1.826815844E0,6.033507795E0
1.430899079E0,7.186086178E-1,-6.336175919E0,1.737093925E0,6.609161741E0
1.435811631E0,6.473556757E-1,-6.943812370E0,1.732399821E0,7.185875642E0
1.440724131E0,6.231068373E-1,-7.497262001E0,1.800602436E0,7.735591042E0
1.445636631E0,6.551983356E-1,-7.977779865E0,1.862956285E0,8.218568157E0
1.450549183E0,6.573807001E-1,-8.426319122E0,1.924617290E0,8.668284435E0
1.455461683E0,6.057086587E-1,-8.857433319E0,2.009958982E0,9.102798641E0
1.460374183E0,5.427269340E-1,-9.283238411E0,2.049851418E0,9.522339983E0
1.465286735E0,5.326897502E-1,-9.737271309E0,2.044622421E0,9.963869317E0
1.470199235E0,5.586377978E-1,-1.019329166E1,1.982580185E0,1.039932187E1
1.475111787E0,6.326543093E-1,-1.068478203E1,1.887630939E0,1.086866915E1
1.480024287E0,7.381783128E-1,-1.116398239E1,1.721476555E0,1.132002171E1
1.484936787E0,8.349367976E-1,-1.163817215E1,1.548493862E0,1.177038673E1
1.489849339E0,8.730161786E-1,-1.210270882E1,1.289379597E0,1.220246769E1
1.494761839E0,8.551707864E-1,-1.256253910E1,9.412341118E-1,1.262674255E1
1.499674339E0,7.743032575E-1,-1.296064281E1,5.436716080E-1,1.299512934E1
1.504586891E0,6.518357992E-1,-1.331183243E1,1.360650063E-1,1.332847651E1
1.509499391E0,5.211281180E-1,-1.352115345E1,-3.139973879E-1,1.353483504E1
1.514411891E0,4.008119106E-1,-1.371830368E1,-7.407603264E-1,1.374413445E1
1.519324443E0,1.565696001E-1,-1.387985134E1,-1.099892855E0,1.392424330E1
1.524236943E0,-1.332226992E-1,-1.397767830E1,-1.347005129E0,1.404306454E1
1.529149443E0,-3.996884823E-1,-1.408625412E1,-1.518433690E0,1.417349452E1
1.534061995E0,-5.931069851E-1,-1.421769142E1,-1.597665787E0,1.431946442E1
1.538974495E0,-7.279688120E-1,-1.434099197E1,-1.599030256E0,1.444821398E1
1.543886995E0,-8.759063482E-1,-1.442757797E1,-1.570039988E0,1.453916241E1
1.548799547E0,-1.053651810E0,-1.447041130E1,-1.524548173E0,1.458859940E1
1.553712047E0,-1.320997238E0,-1.449109459E1,-1.418979406E0,1.462020378E1
1.558624547E0,-1.580199599E0,-1.452786636E1,-1.307821989E0,1.467195727E1
1.563537100E0,-1.858068466E0,-1.451144695E1,-1.192726493E0,1.467845726E1
1.568449600E0,-2.126425266E0,-1.446104527E1,-1.068120360E0,1.465552441E1
1.573362152E0,-2.376417160E0,-1.438388729E1,-9.236274958E-1,1.460810254E1
1.578274652E0,-2.615890265E0,-1.423943901E1,-7.990679741E-1,1.449975913E1
1.583187152E0,-2.823902607E0,-1.407559204E1,-6.795251369E-1,1.437214221E1
1.588099652E0,-2.938630104E0,-1.383263016E1,-5.907895565E-1,1.415366512E1
1.593012204E0,-2.988894939E0,-1.360371017E1,-5.109505057E-1,1.393755696E1
1.597924704E0,-2.941049576E0,-1.329310036E1,-4.468865395E-1,1.362189404E1
1.602837256E0,-2.785246849E0,-1.297715378E1,-4.006694555E-1,1.327872946E1
1.607749756E0,-2.545018673E0,-1.256970215E1,-3.650853634E-1,1.282995789E1
1.612662256E0,-2.279533863E0,-1.214234352E1,-3.783892989E-1,1.236025725E1
1.617574808E0,-2.028886557E0,-1.176171684E1,-4.074813724E-1,1.194237852E1
1.622487308E0,-1.818988323E0,-1.136062813E1,-4.622460008E-1,1.151461078E1
1.627399808E0,-1.642375231E0,-1.090549088E1,-5.477530360E-1,1.104206326E1
1.632312360E0,-1.537119269E0,-1.042488289E1,-6.358184218E-1,1.055676011E1
1.637224860E0,-1.428955436E0,-9.937698364E0,-6.671437621E-1,1.006204965E1
1.642137360E0,-1.310779572E0,-9.424564362E0,-6.420294046E-1,9.536915552E0
1.647049912E0,-1.232948065E0,-8.921060562E0,-5.460284948E-1,9.022396001E0
1.651962412E0,-1.107158422E0,-8.391042709E0,-3.860093951E-1,8.472567543E0
1.656874912E0,-9.429897070E-1,-7.729238987E0,-1.186469495E-1,7.787454141E0
1.661787464E0,-6.591184139E-1,-7.026421547E0,2.111258507E-1,7.060425693E0
1.666699964E0,-2.886223793E-1,-6.275224686E0,5.369438529E-1,6.304764582E0
1.671612464E0,1.738808155E-1,-5.456411839E0,8.499083519E-1,5.524944244E0
1.676525016E0,6.549994946E-1,-4.627233982E0,1.183998108E0,4.821013398E0
1.681437516E0,1.109775782E0,-3.696853638E0,1.520481229E0,4.148516876E0
1.686350068E0,1.536075473E0,-2.667869091E0,1.931562304E0,3.634279335E0
1.691262568E0,1.993674636E0,-1.531008720E0,2.382007122E0,3.463045507E0
1.696175068E0,2.458393097E0,-2.890863419E-1,2.894399643E0,3.808518981E0
1.701087620E0,2.848359585E0,1.069252014E0,3.451205969E0,4.600790675E0
1.706000120E0,3.217939854E0,2.571912766E0,4.066193581E0,5.788246920E0
1.710912620E0,3.774651527E0,4.153493881E0,4.681598663E0,7.308684671E0
1.715825172E0,4.463928223E0,5.808328629E0,5.125152588E0,8.940387334E0
1.720737672E0,5.320577621E0,7.475721359E0,5.461115837E0,1.067795590E1
1.725650172E0,6.217496872E0,9.240714073E0,5.626486778E0,1.247819768E1
1.730562725E0,7.114002228E0,1.107356358E1,5.615001678E0,1.430947525E1
1.735475225E0,7.847781181E0,1.299729538E1,5.374085903E0,1.610584229E1
1.740387725E0,8.383405685E0,1.482029343E1,4.826463699E0,1.769794734E1
1.745300277E0,8.615617752E0,1.648312950E1,3.982558250E0,1.902059930E1
1.750212777E0,8.543491364E0,1.791258812E1,2.938138008E0,2.006202165E1
1.755125277E0,8.275479317E0,1.917911339E1,1.853012085E0,2.097035055E1
1.760037829E0,7.893109322E0,2.024323654E1,8.580756187E-1,2.174456471E1
1.764950329E0,7.492048740E0,2.112043381E1,1.249709129E-1,2.241024623E1
1.769862829E0,7.139031410E0,2.177574539E1,-3.363940716E-1,2.291859546E1
1.774775381E0,6.855360031E0,2.217405510E1,-3.814754486E-1,2.321271643E1
1.779687881E0,6.590658665E0,2.242330170E1,-3.462791443E-2,2.337183005E1
1.784600381E0,6.251356602E0,2.256405640E1,6.330640316E-1,2.342257182E1
1.789512933E0,5.863296509E0,2.251972389E1,1.527164221E0,2.332055833E1
1.794425433E0,5.514152527E0,2.219710541E1,2.520455599E0,2.301021649E1
1.799337985E0,5.190829277E0,2.172049141E1,3.576853752E0,2.261677118E1
1.804250485E0,4.782167912E0,2.110635567E1,4.662851810E0,2.213796663E1
1.809162985E0,4.212910652E0,2.037816620E1,5.764376163E0,2.159273735E1
1.814075537E0,3.605881214E0,1.952117729E1,6.802815437E0,2.098468585E1
1.818988037E0,3.084100485E0,1.855649376E1,7.720907211E0,2.033390136E1
1.823900537E0,2.608105183E0,1.747184372E1,8.444514275E0,1.958002444E1
1.828813089E0,2.280165434E0,1.629804611E1,9.030597687E0,1.877171159E1
1.833725589E0,2.037866592E0,1.500168610E1,9.360955238E0,1.779974632E1
1.838638089E0,1.809394360E0,1.366444874E1,9.429130554E0,1.670028653E1
1.843550641E0,1.489523411E0,1.232989883E1,9.297401428E0,1.551408259E1
1.848463141E0,1.130664349E0,1.096069336E1,8.969812393E0,1.420819254E1
1.853375641E0,7.706931233E-1,9.655885696E0,8.423634529E0,1.283696674E1
1.858288193E0,4.045156837E-1,8.402116776E0,7.819746017E0,1.148510457E1
1.863200693E0,1.152737737E-1,7.212295532E0,7.211145878E0,1.019956468E1
1.868113193E0,-1.117284894E-1,6.072816849E0,6.662942886E0,9.015896830E0
1.873025745E0,-2.933693528E-1,5.046356201E0,6.123354912E0,7.940229963E0
1.877938245E0,-4.252093136E-1,4.063907623E0,5.677296162E0,6.994843804E0
1.882850745E0,-4.741501212E-1,3.111442566E0,5.309455872E0,6.172213123E0
1.887763297E0,-5.527198911E-1,2.229793549E0,4.997556686E0,5.500277391E0
1.892675797E0,-5.677100420E-1,1.390356064E0,4.695724010E0,4.930031304E0
1.897588297E0,-5.046939254E-1,5.932464600E-1,4.405883789E0,4.474200407E0
1.902500850E0,-4.185911715E-1,-1.304073334E-1,4.118093967E0,4.141367234E0
1.907413350E0,-4.243208170E-1,-8.402843475E-1,3.870151997E0,3.982989131E0
1.912325850E0,-4.334621131E-1,-1.493220329E0,3.608820677E0,3.929527075E0
1.917238402E0,-3.863181472E-1,-2.091586113E0,3.324030876E0,3.946283751E0
1.922150902E0,-2.636850178E-1,-2.656875610E0,3.098844528E0,4.090397928E0
1.927063402E0,-1.799811423E-1,-3.177102566E0,2.846347809E0,4.269434362E0
1.931975954E0,-1.016484797E-1,-3.690452576E0,2.491444588E0,4.453882437E0
1.936888454E0,1.222968567E-2,-4.182529926E0,2.145267248E0,4.700625247E0
1.941801006E0,1.407377422E-1,-4.684406281E0,1.748981476E0,5.002240050E0
1.946713506E0,2.700487077E-1,-5.184182644E0,1.449485660E0,5.389775938E0
1.951626006E0,4.486383200E-1,-5.650949001E0,1.175989747E0,5.789425951E0
1.956538558E0,6.244843602E-1,-6.130346298E0,9.320595264E-1,6.232163462E0
1.961451058E0,7.454237938E-1,-6.536603928E0,6.902977824E-1,6.615085681E0
1.966363558E0,7.565743327E-1,-6.987197399E0,4.237279296E-1,7.040800918E0
1.971276110E0,6.646654606E-1,-7.422626495E0,2.391543239E-1,7.456162488E0
1.976188610E0,4.835411012E-1,-7.864756584E0,1.409189850E-1,7.880867102E0
1.981101110E0,2.530020773E-1,-8.311518669E0,1.219599247E-1,8.316262794E0
1.986013662E0,7.493746281E-2,-8.751268387E0,2.663014531E-1,8.755639923E0
1.990926162E0,-6.333917379E-2,-9.172332764E0,4.241417646E-1,9.182352444E0
1.995838662E0,-2.004690766E-1,-9.603593826E0,6.396187544E-1,9.626957691E0
2.000751214E0,-4.230607152E-1,-9.987861633E0,8.590952158E-1,1.003366359E1
2.005663714E0,-6.767107248E-1,-1.033254433E1,1.119639277E0,1.041503729E1
2.010576214E0,-9.477978349E-1,-1.066172695E1,1.314968109E0,1.078424237E1
2.015488766E0,-1.158219814E0,-1.103762722E1,1.522823930E0,1.120221766E1
2.020401266E0,-1.306142926E0,-1.141003227E1,1.698698044E0,1.160949701E1
2.025313818E0,-1.441962838E0,-1.176703644E1,1.797944307E0,1.199062163E1
2.030226318E0,-1.451071501E0,-1.200600147E1,1.859396219E0,1.223548259E1
2.035138818E0,-1.419950485E0,-1.219415283E1,1.778097630E0,1.240464646E1
2.040051370E0,-1.389256716E0,-1.235796165E1,1.565963507E0,1.253401341E1
2.044963870E0,-1.311138988E0,-1.244509029E1,1.241498709E0,1.257539967E1
2.049876370E0,-1.149300456E0,-1.252752304E1,8.323395252E-1,1.260763714E1
2.054788922E0,-9.916682243E-1,-1.256963730E1,4.017201662E-1,1.261509282E1
2.059701422E0,-8.281033039E-1,-1.254310131E1,-8.757591248E-3,1.257041058E1
2.064613922E0,-7.348258495E-1,-1.248180389E1,-4.339396954E-1,1.251094326E1
2.069526475E0,-6.778692007E-1,-1.248161125E1,-8.247424364E-1,1.252718349E1
2.074438975E0,-5.732767582E-1,-1.247816277E1,-1.156086564E0,1.254470918E1
2.079351475E0,-4.829248190E-1,-1.252662945E1,-1.436192155E0,1.261793603E1
2.084264027E0,-3.849451542E-1,-1.261751747E1,-1.682610512E0,1.273503467E1
2.089176527E0,-3.126518726E-1,-1.264583015E1,-1.879402399E0,1.278854663E1
2.094089027E0,-2.586517334E-1,-1.264766884E1,-2.063056469E0,1.281743460E1
2.099001579E0,-2.370842695E-1,-1.261122990E1,-2.214925528E0,1.280645242E1
2.103914079E0,-3.077543974E-1,-1.256766224E1,-2.294576645E0,1.277912082E1
2.108826579E0,-4.013355970E-1,-1.250255394E1,-2.306717396E0,1.271990057E1
2.113739131E0,-5.132269859E-1,-1.239430237E1,-2.234387398E0,1.260454760E1
2.118651631E0,-6.507456303E-1,-1.230482292E1,-2.081676960E0,1.249662018E1
2.123564131E0,-7.735853195E-1,-1.218119431E1,-1.840424895E0,1.234370660E1
2.128476683E0,-8.700358868E-1,-1.202316380E1,-1.538471460E0,1.215237938E1
2.133389183E0,-9.235093594E-1,-1.181371307E1,-1.217717290E0,1.191215856E1
2.138301683E0,-9.389716387E-1,-1.158842468E1,-8.577996492E-1,1.165800474E1
2.143214235E0,-9.308555126E-1,-1.133266163E1,-5.172154903E-1,1.138258422E1
2.148126735E0,-9.828859568E-1,-1.105339718E1,-1.853787899E-1,1.109855933E1
2.153039287E0,-9.087322950E-1,-1.073135185E1,1.864789128E-1,1.077137323E1
2.157951787E0,-9.024080038E-1,-1.038555431E1,4.368283749E-1,1.043383427E1
2.162864287E0,-8.803693652E-1,-1.002075291E1,6.306766272E-1,1.007910175E1
2.167776839E0,-7.754215598E-1,-9.615390778E0,7.678797245E-1,9.677120319E0
2.172689339E0,-6.399084330E-1,-9.207676888E0,8.313392401E-1,9.267249937E0
2.177601839E0,-4.877778888E-1,-8.816611290E0,8.157104254E-1,8.867691098E0
2.182514391E0,-3.089217544E-1,-8.375120163E0,7.276231050E-1,8.412342467E0
2.187426891E0,-8.838671446E-2,-7.904631615E0,6.858480573E-1,7.934822035E0
2.192339391E0,1.898920536E-2,-7.347679138E0,6.249184012E-1,7.374230286E0
2.197251943E0,4.671210051E-2,-6.689931393E0,5.871583819E-1,6.715811122E0
2.202164443E0,-2.206689119E-2,-5.960039139E0,5.767972469E-1,5.987925229E0
2.207076943E0,-4.422086477E-2,-5.217613220E0,6.296135187E-1,5.255649949E0
2.211989495E0,-8.004185557E-2,-4.445695877E0,8.033549786E-1,4.518406550E0
2.216901995E0,-9.660553932E-2,-3.615480900E0,1.089474797E0,3.777299313E0
2.221814495E0,-6.589198112E-2,-2.624251842E0,1.498785257E0,3.022812719E0
2.226727047E0,1.483885348E-1,-1.515276909E0,1.968035579E0,2.488221716E0
2.231639547E0,5.227707028E-1,-3.557033539E-1,2.426971674E0,2.507988355E0
2.236552100E0,9.815758467E-1,9.163675308E-1,2.912832499E0,3.207462199E0
2.241464600E0,1.334117532E0,2.259883881E0,3.355052948E0,4.259498213E0
2.246377100E0,1.645630240E0,3.645798683E0,3.690000057E0,5.442062784E0
2.251289652E0,1.861859918E0,5.124006271E0,3.791431904E0,6.640551069E0
2.256202152E0,1.988360524E0,6.624859810E0,3.767288208E0,7.876217716E0
2.261114652E0,2.123564243E0,8.162475586E0,3.758663654E0,9.233801235E0
2.266027204E0,2.224768639E0,9.784297943E0,3.782476425E0,1.072330218E1
2.270939704E0,2.333071470E0,1.149695969E1,3.774706364E0,1.232362417E1
2.275852204E0,2.444031477E0,1.326875305E1,3.877148867E0,1.403799775E1
2.280764756E0,2.524742842E0,1.501778030E1,4.066649437E0,1.576216005E1
2.285677256E0,2.716846704E0,1.661210251E1,4.241219521E0,1.735889250E1
2.290589756E0,2.855762959E0,1.799663544E1,4.236515999E0,1.870781486E1
2.295502308E0,3.054376602E0,1.919776917E1,4.189042568E0,1.988546291E1
2.300414808E0,3.296184778E0,2.019655609E1,4.041268349E0,2.085899235E1
2.305327308E0,3.454423189E0,2.094062805E1,3.974921942E0,2.159265957E1
2.310239860E0,3.526469231E0,2.148281479E1,4.085581779E0,2.215037912E1
2.315152360E0,3.590854883E0,2.188040543E1,4.333140373E0,2.259253164E1
2.320064860E0,3.656775713E0,2.213072205E1,4.709009171E0,2.291976514E1
2.324977412E0,3.771695614E0,2.225966835E1,5.085424423E0,2.314260280E1
2.329889912E0,3.889792919E0,2.216172028E1,5.509300232E0,2.316516185E1
2.334802464E0,3.974708557E0,2.188692856E1,5.869740486E0,2.300629921E1
2.339714964E0,4.004560947E0,2.145666885E1,6.125244617E0,2.267032793E1
2.344627464E0,3.974105120E0,2.090211868E1,6.214725494E0,2.216562406E1
2.349540016E0,3.944964886E0,2.025234795E1,6.176860809E0,2.153773328E1
2.354452516E0,3.887980938E0,1.947447586E1,6.028301239E0,2.075360262E1
2.359365016E0,3.930038452E0,1.857413864E1,5.742074966E0,1.983469822E1
2.364277568E0,4.021307468E0,1.750926590E1,5.369853020E0,1.875048340E1
2.369190068E0,4.098064423E0,1.635263443E1,4.974860668E0,1.757703113E1
2.374102568E0,4.173279762E0,1.512436199E1,4.567386627E0,1.634085708E1
2.379015120E0,4.250321388E0,1.391375923E1,4.169642448E0,1.513419459E1
2.383927620E0,4.215228558E0,1.265467548E1,3.715251207E0,1.384601224E1
2.388840120E0,4.053938866E0,1.142201519E1,3.262268782E0,1.255146402E1
2.393752672E0,3.759264708E0,1.019728661E1,2.830436468E0,1.123067655E1
2.398665172E0,3.512803078E0,8.978583336E0,2.532994509E0,9.968490626E0
2.403577672E0,3.261704445E0,7.782920837E0,2.328159094E0,8.754021785E0
2.408490225E0,2.964892149E0,6.648686409E0,2.153083086E0,7.591533652E0
2.413402725E0,2.689021111E0,5.549591064E0,2.043227673E0,6.496427852E0
2.418315225E0,2.457575321E0,4.514297485E0,2.017496109E0,5.521670834E0
2.423227777E0,2.217298508E0,3.478219986E0,2.025555134E0,4.595356411E0
2.428140277E0,1.879204273E0,2.470072746E0,2.053035975E0,3.721239684E0
2.433052777E0,1.590994239E0,1.513744354E0,2.044864655E0,3.000692602E0
2.437965329E0,1.375907421E0,6.259040833E-1,2.010460854E0,2.515319065E0
2.442877829E0,1.135284662E0,-2.532672882E-1,2.023590088E0,2.334080639E0
2.447790329E0,9.404190183E-1,-1.078389168E0,2.052885771E0,2.502329138E0
2.452702881E0,7.667474747E-1,-1.880670547E0,2.124711990E0,2.939255763E0
2.457615381E0,5.900530815E-1,-2.614794731E0,2.207785130E0,3.472697698E0
2.462527881E0,5.060520768E-1,-3.314401627E0,2.323602915E0,4.079274121E0
2.467440433E0,5.029131770E-1,-4.022594929E0,2.407245398E0,4.714766381E0
2.472352933E0,5.860030651E-1,-4.677273273E0,2.417786360E0,5.297733076E0
2.477265485E0,7.538372874E-1,-5.316793442E0,2.471931458E0,5.911599470E0
2.482177985E0,9.543978572E-1,-5.953165054E0,2.521367788E0,6.535162198E0
2.487090485E0,1.023012042E0,-6.569712639E0,2.503436089E0,7.104566844E0
2.492003037E0,1.062677741E0,-7.109194279E0,2.405540228E0,7.580009964E0
2.496915537E0,1.025337577E0,-7.626823425E0,2.255485058E0,8.019162397E0
2.501828037E0,9.008927941E-1,-8.156255722E0,2.109698296E0,8.472717517E0
2.506740589E0,7.390127182E-1,-8.683326721E0,1.989079714E0,8.938833305E0
2.511653089E0,5.055689812E-1,-9.153309822E0,1.886087894E0,9.359273916E0
2.516565589E0,2.428528070E-1,-9.631052017E0,1.889175296E0,9.817592563E0
2.521478141E0,3.392732143E-2,-1.008327770E1,1.969956160E0,1.027396552E1
2.526390641E0,-2.032981515E-1,-1.050783348E1,2.102595806E0,1.071805970E1
2.531303141E0,-4.121267200E-1,-1.094315147E1,2.271200895E0,1.118395128E1
2.536215693E0,-5.933731198E-1,-1.135589314E1,2.388257742E0,1.161947398E1
2.541128193E0,-7.547594905E-1,-1.174143600E1,2.442655087E0,1.201655297E1
2.546040693E0,-9.015769362E-1,-1.207843590E1,2.451865196E0,1.235771409E1
2.550953245E0,-9.958963394E-1,-1.236947632E1,2.418730736E0,1.264302228E1
2.555865745E0,-1.021195173E0,-1.261952400E1,2.286094904E0,1.286551420E1
2.560778245E0,-1.094570160E0,-1.277138329E1,2.121066570E0,1.299250700E1
2.565690797E0,-1.069832683E0,-1.286591148E1,1.952353477E0,1.305710168E1
2.570603297E0,-9.945794344E-1,-1.289374542E1,1.719750881E0,1.304589600E1
2.575515797E0,-8.469655514E-1,-1.293156052E1,1.382231712E0,1.303277302E1
2.580428350E0,-7.318670750E-1,-1.293645382E1,9.893894792E-1,1.299485892E1
2.585340850E0,-6.033684015E-1,-1.295882320E1,5.570417047E-1,1.298481604E1
2.590253350E0,-4.732135534E-1,-1.298930454E1,4.580724239E-2,1.299800223E1
2.595165902E0,-3.912028074E-1,-1.302095413E1,-4.929679632E-1,1.303615371E1
2.600078402E0,-3.211073875E-1,-1.304921722E1,-9.863487482E-1,1.309038059E1
2.604990954E0,-3.106000423E-1,-1.299787998E1,-1.471414804E0,1.308458704E1
2.609903454E0,-3.236690760E-1,-1.293421173E1,-1.913355350E0,1.307897257E1
2.614815954E0,-3.242881298E-1,-1.283687782E1,-2.282043934E0,1.304217465E1
2.619728506E0,-2.760881186E-1,-1.270832348E1,-2.582832336E0,1.297107294E1
2.624641006E0,-2.024942636E-1,-1.260582542E1,-2.727377176E0,1.289908620E1
2.629553506E0,-1.722245216E-1,-1.250998974E1,-2.749046803E0,1.280963555E1
2.634466058E0,-2.041251659E-1,-1.240381432E1,-2.637790680E0,1.268283156E1
2.639378558E0,-3.794764280E-1,-1.226554871E1,-2.514872074E0,1.252646275E1
2.644291058E0,-5.788853168E-1,-1.212845516E1,-2.331641436E0,1.236410468E1
2.649203610E0,-7.619109154E-1,-1.203047276E1,-2.127841473E0,1.224093511E1
2.654116110E0,-9.742374420E-1,-1.187330437E1,-1.883646011E0,1.206120299E1
2.659028610E0,-1.216194868E0,-1.164012146E1,-1.620035648E0,1.181507821E1
2.663941162E0,-1.419005752E0,-1.138822460E1,-1.362646222E0,1.155690450E1
2.668853662E0,-1.592896938E0,-1.109356403E1,-1.098707199E0,1.126106750E1
2.673766162E0,-1.781653762E0,-1.079189682E1,-8.129542470E-1,1.096814577E1
2.678678714E0,-1.909334183E0,-1.043290615E1,-5.786908865E-1,1.062195702E1
2.683591214E0,-1.942877293E0,-1.005001736E1,-3.284717500E-1,1.024136293E1
2.688503714E0,-1.879912138E0,-9.595312119E0,-9.533682466E-2,9.778198884E0
2.693416266E0,-1.837617040E0,-9.130905151E0,-8.117645979E-3,9.313985783E0
2.698328766E0,-1.818184614E0,-8.620830536E0,5.537264049E-2,8.810651539E0
2.703241266E0,-1.759322643E0,-8.110434532E0,1.258768588E-1,8.300012617E0
2.708153818E0,-1.699198723E0,-7.578043938E0,1.624431312E-1,7.767909242E0
2.713066318E0,-1.611255646E0,-7.040227890E0,1.671608686E-1,7.224188277E0
2.717978818E0,-1.512060642E0,-6.494398117E0,2.140095532E-1,6.671531637E0
2.722891370E0,-1.281927109E0,-5.871054173E0,3.459520936E-1,6.019326961E0
2.727803870E0,-1.047634125E0,-5.194051743E0,5.441544056E-1,5.326519950E0
2.732716422E0,-8.164640665E-1,-4.377345562E0,7.686650157E-1,4.518696012E0
2.737628922E0,-5.715294480E-1,-3.452169418E0,1.113514900E0,3.672061415E0
2.742541422E0,-1.929984689E-1,-2.437806606E0,1.510181904E0,2.874160546E0
2.747453975E0,2.577186823E-1,-1.363121510E0,1.962136269E0,2.403018499E0
2.752366475E0,5.398659110E-1,-2.713003159E-1,2.376782894E0,2.452377620E0
2.757278975E0,7.113564014E-1,7.658929825E-1,2.594148636E0,2.796824473E0
2.762191527E0,8.344171047E-1,1.739015579E0,2.740845442E0,3.351516198E0
2.767104027E0,9.326291084E-1,2.767649651E0,2.883798599E0,4.104384973E0
2.772016527E0,1.048630118E0,3.887454033E0,3.142801285E0,5.107751354E0
2.776929079E0,1.170193553E0,5.140991211E0,3.521216154E0,6.340197693E0
2.781841579E0,1.347403526E0,6.486889839E0,4.001530647E0,7.739992479E0
2.786754079E0,1.611830235E0,7.907571793E0,4.540257454E0,9.259677430E0
2.791666631E0,1.957375526E0,9.318506241E0,4.957529068E0,1.073512794E1
2.796579131E0,2.346998692E0,1.071175766E1,5.133166313E0,1.210783017E1
2.801491631E0,2.592604160E0,1.202464390E1,5.225881577E0,1.336501012E1
2.806404183E0,2.613305569E0,1.333820248E1,5.171176910E0,1.454228599E1
2.811316683E0,2.629214525E0,1.467382050E1,4.892107964E0,1.568969398E1
2.816229183E0,2.688363075E0,1.603384399E1,4.536278725E0,1.687866327E1
2.821141735E0,2.832103252E0,1.735376740E1,4.181577682E0,1.807372799E1
2.826054235E0,3.039673090E0,1.853329468E1,3.848664045E0,1.917119816E1
2.830966735E0,3.343250036E0,1.958932304E1,3.610981703E0,2.019797235E1
2.835879287E0,3.533597469E0,2.045265198E1,3.365145206E0,2.102668510E1
2.840791787E0,3.736213207E0,2.110441017E1,3.213488102E0,2.167214626E1
2.845704287E0,3.887325048E0,2.157124901E1,3.054909945E0,2.213057963E1
2.850616839E0,4.032871723E0,2.178436089E1,2.929130316E0,2.234730941E1
2.855529339E0,4.043993950E0,2.172051620E1,2.859114885E0,2.227799922E1
2.860441891E0,4.016320229E0,2.138514137E1,2.954182148E0,2.195864959E1
2.865354391E0,3.954263687E0,2.083122253E1,3.266943216E0,2.145341352E1
2.870266891E0,3.869184256E0,2.005878639E1,3.805429220E0,2.077996126E1
2.875179391E0,3.666784763E0,1.918005180E1,4.432456970E0,2.002414474E1
2.880091943E0,3.413104296E0,1.818025208E1,5.104676247E0,1.918928258E1
2.885004443E0,3.229066849E0,1.711146927E1,5.764812469E0,1.834290915E1
2.889916943E0,2.955295563E0,1.593744469E1,6.326724529E0,1.740009650E1
2.894829495E0,2.607229233E0,1.477278614E1,6.727754116E0,1.644066696E1
2.899741995E0,2.274337292E0,1.353866768E1,6.832807064E0,1.533477698E1
2.904654547E0,2.091915607E0,1.223314476E1,6.711840630E0,1.410938504E1
2.909567047E0,1.953938484E0,1.091901207E1,6.460446358E0,1.283666886E1
2.914479547E0,1.776051521E0,9.652007103E0,6.099363327E0,1.155499170E1
2.919392047E0,1.610640287E0,8.428124428E0,5.629791260E0,1.026265040E1
2.924304600E0,1.500639439E0,7.288825035E0,5.095614433E0,9.019100596E0
2.929217100E0,1.419692755E0,6.191814423E0,4.531017780E0,7.802833811E0
2.934129652E0,1.406220198E0,5.128239632E0,4.001191139E0,6.654759763E0
2.939042152E0,1.515949249E0,4.158448219E0,3.482840776E0,5.632137569E0
2.943954652E0,1.617926002E0,3.223120689E0,3.002817869E0,4.692878294E0
2.948867204E0,1.808857441E0,2.365666389E0,2.540279865E0,3.914251461E0
2.953779704E0,2.005904913E0,1.545658112E0,2.096054792E0,3.287272305E0
2.958692204E0,2.128329754E0,8.541269302E-1,1.654142141E0,2.827632681E0
2.963604756E0,2.207720757E0,1.715450287E-1,1.224790692E0,2.530527786E0
2.968517256E0,2.222677469E0,-4.566106796E-1,8.255730867E-1,2.414613710E0
2.973429756E0,2.182809830E0,-1.092576981E0,4.740743637E-1,2.486589977E0
2.978342308E0,2.154917479E0,-1.717329025E0,2.239470482E-1,2.764604963E0
2.983254808E0,2.117449522E0,-2.276130676E0,1.509572268E-1,3.112418901E0
2.988167308E0,2.146883726E0,-2.848227978E0,1.781843901E-1,3.571170960E0
2.993079860E0,2.157232761E0,-3.398015022E0,2.506919503E-1,4.032741714E0
2.997992360E0,2.105393410E0,-3.973573685E0,4.428009391E-1,4.518632748E0
3.002904860E0,2.060692549E0,-4.594203949E0,6.902449131E-1,5.082283123E0
3.007817412E0,1.989241362E0,-5.111849308E0,9.890744686E-1,5.573719839E0
3.012729912E0,1.794977546E0,-5.653528214E0,1.332989335E0,6.079571220E0
3.017642412E0,1.517850757E0,-6.190671444E0,1.679906487E0,6.591689438E0
3.022554964E0,1.209468126E0,-6.699521542E0,1.987666845E0,7.092053407E0
3.027467464E0,8.902872801E-1,-7.163524151E0,2.228453636E0,7.554779633E0
3.032379964E0,5.763567090E-1,-7.704751968E0,2.477373362E0,8.113739503E0
3.037292516E0,3.174511492E-1,-8.215593338E0,2.706484795E0,8.655738505E0
3.042205016E0,7.953310013E-2,-8.660307884E0,2.849498987E0,9.117395606E0
3.047117516E0,-1.761215329E-1,-9.065361977E0,2.851695776E0,9.504944785E0
3.052030068E0,-3.971522450E-1,-9.461958885E0,2.789594650E0,9.872600172E0
3.056942568E0,-5.286723971E-1,-9.833444595E0,2.679679871E0,1.020572444E1
3.061855068E0,-6.182993054E-1,-1.018230724E1,2.511953831E0,1.050578826E1
3.066767620E0,-7.281544805E-1,-1.044653893E1,2.331125975E0,1.072821200E1
3.071680120E0,-8.461939692E-1,-1.070289040E1,2.122058868E0,1.094399566E1
3.076592672E0,-9.510238767E-1,-1.088940716E1,1.828910112E0,1.108280411E1
3.081505172E0,-1.018914223E0,-1.109482670E1,1.539472818E0,1.124737046E1
3.086417672E0,-1.071585894E0,-1.127388573E1,1.284259796E0,1.139728560E1
3.091330172E0,-1.063606501E0,-1.138617897E1,9.884834886E-1,1.147838969E1
3.096242725E0,-1.033057690E0,-1.156102753E1,6.780561209E-1,1.162687945E1
3.101155225E0,-9.148839116E-1,-1.170281315E1,4.029245377E-1,1.174543300E1
3.106067777E0,-8.809330463E-1,-1.181406212E1,1.700803041E-1,1.184808145E1
3.110980277E0,-9.117545485E-1,-1.189491081E1,-8.520591259E-2,1.193010728E1
3.115892777E0,-9.424445629E-1,-1.196225643E1,-3.896121979E-1,1.200564777E1
3.120805277E0,-9.919726253E-1,-1.207360935E1,-7.076555490E-1,1.213494247E1
3.125717829E0,-1.031338692E0,-1.213103008E1,-1.078226209E0,1.222244338E1
3.130630329E0,-1.129918337E0,-1.220885563E1,-1.406293750E0,1.234141537E1
3.135542881E0,-1.242338181E0,-1.224264050E1,-1.761756063E0,1.243098688E1
3.140455381E0,-1.342372537E0,-1.229470444E1,-2.109278202E0,1.254634512E1
3.145367881E0,-1.463625669E0,-1.227423096E1,-2.418097496E0,1.259548098E1
3.150280433E0,-1.534106135E0,-1.227450562E1,-2.638236523E0,1.264821180E1
3.155192933E0,-1.563024521E0,-1.224276066E1,-2.745686054E0,1.264385329E1
3.160105433E0,-1.662573338E0,-1.217407227E1,-2.761623144E0,1.259359949E1
3.165017985E0,-1.813560247E0,-1.207070446E1,-2.735926390E0,1.250904473E1
3.169930485E0,-1.975745201E0,-1.197795677E1,-2.720716953E0,1.244095327E1
3.174842985E0,-2.051222086E0,-1.189319992E1,-2.660418987E0,1.235854140E1
3.179755537E0,-2.078498840E0,-1.184250069E1,-2.571392059E0,1.229540715E1
3.184668037E0,-2.076902628E0,-1.171323109E1,-2.441165209E0,1.214382949E1
3.189580537E0,-2.089525938E0,-1.151724339E1,-2.278987408E0,1.192504916E1
3.194493089E0,-2.121359348E0,-1.120661736E1,-2.139412642E0,1.160454758E1
3.199405589E0,-2.129655361E0,-1.086497974E1,-1.919071674E0,1.123681685E1
3.204318089E0,-2.131495953E0,-1.046109962E1,-1.622445107E0,1.079862067E1
3.209230641E0,-2.029002190E0,-1.000679779E1,-1.344539642E0,1.029857460E1
3.214143141E0,-1.867958546E0,-9.564098358E0,-1.053614020E0,9.801599310E0
3.219055641E0,-1.703647852E0,-9.056309700E0,-7.204543948E-1,9.243279500E0
3.223968193E0,-1.440340519E0,-8.528771400E0,-3.998156786E-1,8.658774451E0
3.228880693E0,-1.156698704E0,-8.002845764E0,-1.418182552E-1,8.087249510E0
3.233793193E0,-9.192579985E-1,-7.420984268E0,5.091819912E-2,7.477876399E0
3.238705745E0,-6.819552183E-1,-6.840445518E0,2.258168757E-1,6.878063032E0
3.243618245E0,-4.344671965E-1,-6.225149155E0,4.205338359E-1,6.254445815E0
3.248530745E0,-2.337934524E-1,-5.488871574E0,6.586913466E-1,5.533194812E0
3.253443297E0,-1.590048373E-1,-4.598118305E0,9.832578301E-1,4.704760403E0
3.258355797E0,-2.149196714E-2,-3.638992310E0,1.389861703E0,3.895438677E0
3.263268297E0,1.924319267E-1,-2.585143089E0,1.857619524E0,3.189160569E0
3.268180850E0,4.896056354E-1,-1.405542374E0,2.377982616E0,2.805363500E0
3.273093350E0,8.295281529E-1,-2.103471756E-1,2.916338444E0,3.039307949E0
3.278005850E0,1.318017483E0,1.041010857E0,3.370763302E0,3.766021631E0
3.282918402E0,1.807543993E0,2.269406319E0,3.766316652E0,4.754215125E0
3.287830902E0,2.262658834E0,3.522409439E0,4.168921947E0,5.908206451E0
3.292743402E0,2.676355362E0,4.837766647E0,4.582801342E0,7.181151182E0
3.297655954E0,2.998780966E0,6.212349892E0,5.026756287E0,8.535470533E0
3.302568454E0,3.373894453E0,7.693033218E0,5.507895470E0,1.004504039E1
3.307480954E0,3.773585081E0,9.202266693E0,5.860729694E0,1.154425438E1
3.312393506E0,4.140862942E0,1.067705822E1,6.014990807E0,1.293547187E1
3.317306006E0,4.478806973E0,1.214545250E1,5.950064659E0,1.424692942E1
3.322218506E0,4.778622627E0,1.358788681E1,5.661188602E0,1.547627082E1
3.327131058E0,5.098832130E0,1.511178207E1,5.159372330E0,1.676255259E1
3.332043558E0,5.479393482E0,1.656875038E1,4.502860546E0,1.802284648E1
3.336956058E0,5.797438145E0,1.787059402E1,3.778029203E0,1.916355720E1
3.341868610E0,5.860032082E0,1.895329094E1,3.095168829E0,2.007852792E1
3.346781110E0,5.758190632E0,1.991076279E1,2.536095858E0,2.088125993E1
3.351693610E0,5.711876869E0,2.069568634E1,2.115995884E0,2.157346539E1
3.356606162E0,5.649487019E0,2.123186684E1,1.879449844E0,2.205087764E1
3.361518662E0,5.599757195E0,2.148609924E1,1.957778454E0,2.228996720E1
3.366431162E0,5.588884354E0,2.157316971E1,2.301383734E0,2.240387571E1
3.371343714E0,5.499410629E0,2.147364044E1,2.794537306E0,2.234211695E1
3.376256214E0,5.357122898E0,2.121342468E1,3.439379454E0,2.214808081E1
3.381168714E0,5.180480957E0,2.078495216E1,4.151944637E0,2.181949275E1
3.386081266E0,4.995182991E0,2.017118454E1,4.793268204E0,2.132613324E1
3.390993766E0,4.745477200E0,1.935525894E1,5.350988865E0,2.063440536E1
3.395906266E0,4.404354095E0,1.843048477E1,5.759790897E0,1.980546124E1
3.400818818E0,4.073848724E0,1.741621399E1,6.018392563E0,1.887171964E1
3.405731318E0,3.746051073E0,1.638703918E1,6.048219681E0,1.786473938E1
3.410643818E0,3.408395290E0,1.524321270E1,5.863254070E0,1.668383769E1
3.415556370E0,3.082163811E0,1.405496788E1,5.532012939E0,1.541573946E1
3.420468870E0,2.826807976E0,1.284952450E1,5.146416664E0,1.412751668E1
3.425381370E0,2.565796852E0,1.163735104E1,4.690287590E0,1.280664087E1
3.430293922E0,2.373491287E0,1.045748806E1,4.228831768E0,1.152716511E1
3.435206422E0,2.228764296E0,9.305747986E0,3.796212435E0,1.029444339E1
3.440118975E0,2.132019520E0,8.170688629E0,3.429091454E0,9.113963359E0
3.445031475E0,2.023470879E0,7.076699257E0,3.104337215E0,7.988179787E0
3.449943975E0,1.905658960E0,6.007369995E0,2.801471710E0,6.896975719E0
3.454856475E0,1.757108331E0,5.022724152E0,2.526501656E0,5.890534628E0
3.459769027E0,1.640039325E0,4.072655678E0,2.340547562E0,4.975381005E0
3.464681527E0,1.496836424E0,3.197862625E0,2.199928999E0,4.160112048E0
3.469594027E0,1.339267373E0,2.352880478E0,2.099444866E0,3.425981959E0
3.474506579E0,1.181505561E0,1.530541420E0,2.041032314E0,2.811463202E0
3.479419079E0,1.080808401E0,7.188758850E-1,2.000314236E0,2.384572578E0
3.484331579E0,9.986903667E-1,-8.930683136E-2,1.964923978E0,2.205965638E0
3.489244131E0,8.537778854E-1,-8.677492142E-1,1.999081016E0,2.340566231E0
3.494156631E0,6.936333776E-1,-1.649998665E0,2.049833298E0,2.721293701E0
3.499069131E0,5.491418839E-1,-2.359625340E0,2.160264015E0,3.245940413E0
3.503981683E0,4.126726687E-1,-3.061341286E0,2.251364470E0,3.822401231E0
3.508894183E0,2.286435962E-1,-3.736105442E0,2.373511791E0,4.432191331E0
3.513806683E0,1.187983602E-1,-4.436635494E0,2.481474638E0,5.084836668E0
3.518719235E0,-5.855549127E-2,-5.134277821E0,2.565752506E0,5.739975907E0
3.523631735E0,-1.960778236E-1,-5.812388420E0,2.604851961E0,6.372406092E0
3.528544235E0,-4.307253957E-1,-6.437619209E0,2.584374666E0,6.950356672E0
3.533456787E0,-6.049124599E-1,-7.002982140E0,2.547288656E0,7.476386656E0
3.538369287E0,-8.026592731E-1,-7.549336433E0,2.469401598E0,7.983400701E0
3.543281787E0,-9.354449511E-1,-8.093574524E0,2.405566692E0,8.495160796E0
3.548194339E0,-1.096607208E0,-8.619099617E0,2.336470842E0,8.997250779E0
3.553106839E0,-1.219273567E0,-9.147584915E0,2.329032898E0,9.517842826E0
3.558019339E0,-1.337098002E0,-9.650469780E0,2.268396616E0,1.000325053E1
3.562931891E0,-1.433368087E0,-1.012550545E1,2.295859814E0,1.048100076E1
3.567844391E0,-1.513169169E0,-1.057521152E1,2.263427258E0,1.092006789E1
3.572756891E0,-1.672360420E0,-1.097102833E1,2.293291569E0,1.133223006E1
3.577669443E0,-1.772768736E0,-1.132271862E1,2.218099594E0,1.167332993E1
3.582581943E0,-1.879468203E0,-1.163767529E1,2.064071178E0,1.196780166E1
3.587494443E0,-1.968854189E0,-1.192571068E1,1.873867393E0,1.223153061E1
3.592406995E0,-2.048329830E0,-1.220381546E1,1.618266940E0,1.247988601E1
3.597319495E0,-2.019903183E0,-1.238139343E1,1.332518101E0,1.261564571E1
3.602231995E0,-1.967347622E0,-1.246843338E1,9.703074098E-1,1.265992828E1
3.607144547E0,-1.857044220E0,-1.253949642E1,5.569224358E-1,1.268848873E1
3.612057047E0,-1.741343498E0,-1.263314056E1,1.800224781E-1,1.275385925E1
3.616969547E0,-1.600781560E0,-1.275199986E1,-1.684272289E-1,1.285318519E1
3.621882100E0,-1.492383242E0,-1.282691574E1,-4.435836077E-1,1.292105807E1
3.626794600E0,-1.406170964E0,-1.286534595E1,-6.605489254E-1,1.295881045E1
3.631707100E0,-1.375297070E0,-1.286033630E1,-8.676744699E-1,1.296273701E1
3.636619652E0,-1.354205847E0,-1.289812851E1,-1.031707406E0,1.300999664E1
3.641532152E0,-1.340228200E0,-1.292606354E1,-1.123885751E0,1.304386635E1
3.646444652E0,-1.321004033E0,-1.292489529E1,-1.136561751E0,1.304184582E1
3.651357204E0,-1.394475698E0,-1.283235550E1,-1.050117135E0,1.295054656E1
3.656269704E0,-1.522483587E0,-1.271295261E1,-9.619766474E-1,1.283988004E1
3.661182204E0,-1.655044794E0,-1.261676407E1,-8.571367264E-1,1.275368936E1
3.666094756E0,-1.713334560E0,-1.251249695E1,-7.804791927E-1,1.265334908E1
3.671007256E0,-1.740434170E0,-1.238803864E1,-7.028512955E-1,1.252942985E1
3.675919756E0,-1.774746060E0,-1.226480293E1,-6.838105917E-1,1.241139442E1
3.680832308E0,-1.852140427E0,-1.210683250E1,-7.257452011E-1,1.226916964E1
3.685744808E0,-1.891206503E0,-1.197148609E1,-8.456356525E-1,1.214941319E1
3.690657308E0,-1.920594215E0,-1.183949280E1,-8.881994486E-1,1.202710148E1
3.695569860E0,-1.933029771E0,-1.166528511E1,-8.561320305E-1,1.185531285E1
3.700482360E0,-1.962234020E0,-1.140812302E1,-8.381251097E-1,1.160595049E1
3.705394860E0,-1.984449506E0,-1.112768936E1,-7.743357420E-1,1.132974431E1
3.710307412E0,-1.980661392E0,-1.080224800E1,-6.359031200E-1,1.100072517E1
3.715219912E0,-1.917571664E0,-1.042437553E1,-4.030863047E-1,1.060693947E1
3.720132412E0,-1.917721868E0,-9.989065170E0,-1.899867654E-1,1.017325784E1
3.725044964E0,-1.981925845E0,-9.584600449E0,-3.414624929E-2,9.787428763E0
3.729957464E0,-1.945716619E0,-9.153295517E0,1.752034426E-1,9.359451278E0
3.734869964E0,-1.756822705E0,-8.716418266E0,4.102440178E-1,8.901161360E0
3.739782516E0,-1.457978487E0,-8.201972008E0,7.055904865E-1,8.360377026E0
3.744695016E0,-1.108454585E0,-7.638534546E0,9.713500738E-1,7.779421736E0
3.749607516E0,-6.932359934E-1,-6.937571526E0,1.143565893E0,7.065282568E0
3.754520068E0,-2.140747160E-1,-6.201999187E0,1.224781990E0,6.325402187E0
3.759432568E0,3.061738014E-1,-5.345742702E0,1.180970669E0,5.483192424E0
3.764345068E0,8.371700048E-1,-4.419115543E0,1.059203744E0,4.620751927E0
3.769257620E0,1.324668646E0,-3.431698799E0,9.161251187E-1,3.790855959E0
3.774170120E0,1.766724348E0,-2.309349537E0,8.444473743E-1,3.027788231E0
3.779082620E0,2.120693445E0,-1.145388603E0,8.655307293E-1,2.560937169E0
3.783995172E0,2.497113228E0,5.303668976E-2,9.627107978E-1,2.676789017E0
3.788907672E0,2.925529480E0,1.247634888E0,1.100495219E0,3.365472519E0
3.793820172E0,3.366264820E0,2.450301170E0,1.257956505E0,4.349502182E0
3.798732725E0,3.789294481E0,3.699155807E0,1.433226347E0,5.486040842E0
3.803645225E0,4.138092995E0,4.907896042E0,1.579037547E0,6.610946737E0
3.808557725E0,4.264874935E0,6.093156815E0,1.662393212E0,7.620975618E0
3.813470277E0,4.270282269E0,7.230873108E0,1.801258683E0,8.588676813E0
3.818382777E0,4.125077724E0,8.383079529E0,2.032364845E0,9.561526839E0
3.823295277E0,3.974819183E0,9.563834190E0,2.275340557E0,1.060392789E1
3.828207777E0,3.845360994E0,1.071782017E1,2.423469305E0,1.164180715E1
3.833120329E0,3.686016560E0,1.180641079E1,2.659853458E0,1.265120051E1
3.838032829E0,3.659097672E0,1.280522442E1,3.067280769E0,1.366641795E1
3.842945381E0,3.663881540E0,1.382125568E1,3.465699673E0,1.471265479E1
3.847857881E0,3.642581701E0,1.485619068E1,3.878234863E0,1.578022524E1
3.852770381E0,3.590003967E0,1.576351070E1,4.212913990E0,1.670703572E1
3.857682933E0,3.512758732E0,1.652853775E1,4.398915768E0,1.746088469E1
3.862595433E0,3.352548122E0,1.719411850E1,4.492030621E0,1.808467940E1
3.867507933E0,3.139730453E0,1.773620224E1,4.552474022E0,1.857836906E1
3.872420433E0,3.055576801E0,1.816189766E1,4.568542480E0,1.897531703E1
3.877332985E0,3.071175575E0,1.855003929E1,4.600244522E0,1.935712600E1
3.882245485E0,3.212995052E0,1.871639824E1,4.599795341E0,1.953931978E1
3.887158037E0,3.350009441E0,1.873290443E1,4.567040920E0,1.957044033E1
3.892070537E0,3.578804970E0,1.866432953E1,4.458440781E0,1.952031598E1
3.896983037E0,3.886114120E0,1.847980499E1,4.352228165E0,1.937903417E1
3.901895589E0,4.285423279E0,1.814850426E1,4.202061176E0,1.911518709E1
3.906808089E0,4.692462921E0,1.768504715E1,4.016659260E0,1.873268941E1
3.911720589E0,4.993661880E0,1.706597900E1,3.711225510E0,1.816473212E1
3.916633089E0,5.182864189E0,1.642342377E1,3.329877138E0,1.754078137E1
3.921545641E0,5.143428802E0,1.566954231E1,2.856570959E0,1.673766453E1
3.926458141E0,5.019003868E0,1.479311466E1,2.414091349E0,1.580678583E1
3.931370641E0,4.751511574E0,1.389053535E1,2.027362347E0,1.482005509E1
3.936283193E0,4.423873425E0,1.288338375E1,1.779198170E0,1.373745897E1
3.941195693E0,4.039990425E0,1.186297894E1,1.647518873E0,1.263986196E1
3.946108193E0,3.737978220E0,1.083426666E1,1.639573574E0,1.157765161E1
3.951020745E0,3.476548672E0,9.825976372E0,1.727201104E0,1.056500951E1
3.955933245E0,3.178731203E0,8.783113480E0,1.906255245E0,9.533164402E0
3.960845745E0,2.858339310E0,7.772716522E0,2.072272778E0,8.536951459E0
3.965758297E0,2.514827728E0,6.821219444E0,2.211206436E0,7.598870121E0
3.970670797E0,2.178568840E0,5.883330345E0,2.263475418E0,6.669562138E0
3.975583297E0,1.788980007E0,4.999958992E0,2.264726639E0,5.773129666E0
3.980495850E0,1.453117251E0,4.111507416E0,2.214647293E0,4.890879840E0
3.985408350E0,1.182677269E0,3.194281578E0,2.136577606E0,4.020836255E0
3.990320850E0,9.870504141E-1,2.341755867E0,2.089674950E0,3.290111010E0
3.995233402E0,7.703422308E-1,1.587496758E0,2.015735149E0,2.678947797E0
4.000145902E0,5.682285428E-1,8.789091110E-1,1.935552359E0,2.200392655E0
4.005058402E0,4.237016737E-1,1.371202469E-1,1.922478318E0,1.973384898E0
4.009970954E0,3.126964569E-1,-5.684804916E-1,1.997813106E0,2.100525255E0
4.014883454E0,2.157605290E-1,-1.271409988E0,2.137433529E0,2.496328916E0
4.019795954E0,1.447321475E-1,-1.883206367E0,2.264436722E0,2.948743340E0
4.024708506E0,9.227474034E-2,-2.497251987E0,2.318730831E0,3.409002022E0
4.029621006E0,3.199975193E-2,-3.113572121E0,2.374045849E0,3.915539430E0
4.034533506E0,5.974669009E-2,-3.717873573E0,2.439627409E0,4.447239084E0
4.039446058E0,8.685465157E-2,-4.291104794E0,2.462529182E0,4.948249595E0
4.044358558E0,8.955249935E-2,-4.792727947E0,2.466336727E0,5.390832744E0
4.049271058E0,7.751543075E-2,-5.308998585E0,2.405121565E0,5.828900785E0
4.054183610E0,3.634999692E-2,-5.796963692E0,2.333412409E0,6.249073758E0
4.059096110E0,2.826568484E-2,-6.309371948E0,2.260559797E0,6.702171583E0
4.064008610E0,7.803857327E-3,-6.781754971E0,2.226901531E0,7.138021561E0
4.068921162E0,1.567432284E-2,-7.271643162E0,2.199138403E0,7.596923698E0
4.073833662E0,3.532382846E-2,-7.759977341E0,2.225106001E0,8.072768597E0
4.078746162E0,1.406303048E-2,-8.203792572E0,2.185500383E0,8.489924750E0
4.083658714E0,-8.203917742E-2,-8.663028717E0,2.168927670E0,8.930791914E0
4.088571214E0,-2.512155175E-1,-9.094753265E0,2.086947918E0,9.334505761E0
4.093483714E0,-4.607307315E-1,-9.537399292E0,1.975641489E0,9.750764963E0
4.098396214E0,-7.327353358E-1,-9.991113663E0,1.873243570E0,1.019157960E1
4.103308766E0,-9.890981317E-1,-1.039389896E1,1.772521019E0,1.059024464E1
4.108221266E0,-1.252024055E0,-1.073165417E1,1.661456585E0,1.093144105E1
4.113133766E0,-1.467106342E0,-1.103810978E1,1.556882620E0,1.124349376E1
4.118046318E0,-1.555934787E0,-1.135650158E1,1.413395524E0,1.154940466E1
4.122958818E0,-1.578515053E0,-1.162955284E1,1.262142658E0,1.180386433E1
4.127871318E0,-1.558758974E0,-1.189329815E1,1.129338026E0,1.204805689E1
4.132783870E0,-1.474908113E0,-1.210475159E1,1.019901752E0,1.223685272E1
4.137696370E0,-1.407920957E0,-1.224012756E1,8.834230900E-1,1.235246536E1
4.142608870E0,-1.355160236E0,-1.234740639E1,6.982900500E-1,1.244116203E1
4.147521422E0,-1.306891680E0,-1.239568329E1,4.351768494E-1,1.247198096E1
4.152433922E0,-1.200563192E0,-1.247603130E1,1.220626831E-1,1.253425739E1
4.157346422E0,-1.066828370E0,-1.255746078E1,-2.107903957E-1,1.260445861E1
4.162258975E0,-8.597675562E-1,-1.262336731E1,-5.451725721E-1,1.266435216E1
4.167171475E0,-7.845773697E-1,-1.266911602E1,-9.155099392E-1,1.272635929E1
4.172083975E0,-7.378857136E-1,-1.270442867E1,-1.303591967E0,1.279243273E1
4.176996527E0,-7.145800591E-1,-1.269834709E1,-1.650520086E0,1.282508714E1
4.181909027E0,-7.719480991E-1,-1.265815735E1,-1.937825084E0,1.282887436E1
4.186821527E0,-9.245508313E-1,-1.263894463E1,-2.204312563E0,1.286299768E1
4.191734079E0,-1.088984966E0,-1.258085251E1,-2.375936270E0,1.284946735E1
4.196646579E0,-1.212774396E0,-1.256028557E1,-2.440629005E0,1.285255870E1
4.201559079E0,-1.303231955E0,-1.252672768E1,-2.440948009E0,1.282870013E1
4.206471631E0,-1.386992693E0,-1.246077728E1,-2.352170467E0,1.275646601E1
4.211384131E0,-1.502457380E0,-1.238126755E1,-2.185292006E0,1.266209562E1
4.216296631E0,-1.597200394E0,-1.229027843E1,-1.987119317E0,1.255191763E1
4.221209183E0,-1.661864161E0,-1.211338806E1,-1.737449408E0,1.234968393E1
4.226121683E0,-1.711251259E0,-1.187432098E1,-1.490037680E0,1.208917251E1
4.231034183E0,-1.683651447E0,-1.149400902E1,-1.236549616E0,1.168229346E1
4.235946683E0,-1.646499991E0,-1.105373287E1,-1.016825318E0,1.122184951E1
4.240859235E0,-1.571396589E0,-1.051753902E1,-8.949239254E-1,1.067186971E1
4.245771735E0,-1.379573464E0,-1.003842926E1,-8.395211697E-1,1.016750120E1
4.250684287E0,-1.152259827E0,-9.499000549E0,-7.763969898E-1,9.600078460E0
4.255596787E0,-8.600437641E-1,-8.903922081E0,-7.011889219E-1,8.972801659E0
4.260509287E0,-5.067921281E-1,-8.245889664E0,-7.149421573E-1,8.292326386E0
4.265421787E0,-1.034681201E-1,-7.503256321E0,-7.416030169E-1,7.540526249E0
4.270334339E0,3.008891344E-1,-6.812205791E0,-7.389822006E-1,6.858773703E0
4.275246839E0,6.954308152E-1,-6.009857178E0,-7.365536094E-1,6.094630303E0
4.280159339E0,9.325009584E-1,-5.165461540E0,-7.422631979E-1,5.301179644E0
4.285071891E0,1.057395935E0,-4.238170624E0,-6.299687624E-1,4.413279624E0
4.289984391E0,1.129323602E0,-3.206299782E0,-4.355218112E-1,3.427157618E0
4.294896891E0,1.274812579E0,-2.098425865E0,-7.940018177E-2,2.456591666E0
4.299809443E0,1.513022661E0,-9.312210083E-1,4.180068374E-1,1.825141051E0
4.304721943E0,1.803786755E0,3.120079041E-1,9.721585512E-1,2.072700614E0
4.309634443E0,2.112174988E0,1.544950485E0,1.594402194E0,3.064355322E0
4.314546995E0,2.451211691E0,2.774470329E0,2.339342117E0,4.379343090E0
4.319459495E0,2.689751863E0,4.102939606E0,2.979294300E0,5.739779876E0
4.324371995E0,2.734323978E0,5.474766731E0,3.496856213E0,7.048233946E0
4.329284547E0,2.690031052E0,6.918113708E0,3.900485516E0,8.385126809E0
4.334197047E0,2.681123495E0,8.322408676E0,4.207962513E0,9.703497198E0
4.339109547E0,2.777001143E0,9.613041878E0,4.470371246E0,1.095931241E1
4.344022047E0,2.834162951E0,1.080390835E1,4.736541748E0,1.213226042E1
4.348934600E0,2.859643459E0,1.193517017E1,5.005024910E0,1.325428693E1
4.353847100E0,2.958704948E0,1.312115288E1,5.278689384E0,1.444933041E1
4.358759600E0,3.186824083E0,1.437326908E1,5.454857349E0,1.570038791E1
4.363672152E0,3.492225647E0,1.552367401E1,5.559635639E0,1.685495901E1
4.368584652E0,3.861707926E0,1.651002502E1,5.594903469E0,1.785487774E1
4.373497152E0,4.174342632E0,1.733228683E1,5.519473076E0,1.866274059E1
4.378409704E0,4.421338081E0,1.813637924E1,5.426030159E0,1.944012052E1
4.383322204E0,4.605884552E0,1.887681198E1,5.249323845E0,2.012718569E1
4.388234704E0,4.874681950E0,1.949143600E1,5.082020283E0,2.072451524E1
4.393147256E0,5.017571926E0,1.990861511E1,5.009822369E0,2.113355871E1
4.398059756E0,4.982041836E0,2.015235901E1,4.968262672E0,2.134530273E1
4.402972256E0,4.798965454E0,2.017495918E1,4.957689285E0,2.132223559E1
4.407884808E0,4.494081497E0,1.995748901E1,4.976183891E0,2.105375364E1
4.412797308E0,4.145642757E0,1.951687622E1,5.096237183E0,2.059287364E1
4.417709808E0,3.850845814E0,1.887948227E1,5.350025654E0,1.999716577E1
4.422622360E0,3.541945934E0,1.808365250E1,5.633334160E0,1.926910279E1
4.427534860E0,3.253994465E0,1.712715149E1,5.813155651E0,1.837717543E1
4.432447360E0,2.988615990E0,1.606766319E1,5.921304226E0,1.738284987E1
4.437359912E0,2.694985390E0,1.498445606E1,5.903151512E0,1.632923965E1
4.442272412E0,2.480526686E0,1.383730984E1,5.777699947E0,1.519888064E1
4.447184912E0,2.369361401E0,1.263163090E1,5.474867821E0,1.396947208E1
4.452097412E0,2.282811165E0,1.137536144E1,5.012610435E0,1.263868419E1
4.457009964E0,2.132476807E0,1.013158321E1,4.427401543E0,1.126047602E1
4.461922464E0,1.935173988E0,8.846096039E0,3.712558746E0,9.786797532E0
4.466834964E0,1.736032009E0,7.722937584E0,3.055154324E0,8.484782849E0
4.471747516E0,1.534780622E0,6.614229202E0,2.467756271E0,7.224500018E0
4.476660016E0,1.364740610E0,5.608837128E0,1.941717148E0,6.090306753E0
4.481572516E0,1.156294346E0,4.668622017E0,1.562155008E0,5.057012598E0
4.486485068E0,9.712543488E-1,3.800837517E0,1.309116244E0,4.135636128E0
4.491397568E0,7.685340643E-1,2.938497543E0,1.177416205E0,3.257563712E0
4.496310068E0,6.194648743E-1,2.117464066E0,1.099892378E0,2.465188439E0
4.501222620E0,4.563713074E-1,1.363926888E0,1.100708723E0,1.811113198E0
4.506135120E0,3.025395274E-1,6.370801926E-1,1.146731853E0,1.346252310E0
4.511047620E0,2.510586381E-1,1.333618164E-2,1.202366471E0,1.228370231E0
4.515960172E0,2.828677893E-1,-5.768375397E-1,1.260780334E0,1.415034553E0
4.520872672E0,3.910623193E-1,-1.128699303E0,1.293239474E0,1.760499983E0
4.525785172E0,4.227354228E-1,-1.678143501E0,1.285269976E0,2.155641380E0
4.530697725E0,4.256108999E-1,-2.186867237E0,1.257834911E0,2.558452973E0
4.535610225E0,3.587371409E-1,-2.662080288E0,1.131478071E0,2.914722357E0
4.540522725E0,3.031161129E-1,-3.182738304E0,1.022719145E0,3.356733075E0
4.545435225E0,2.323606014E-1,-3.689036369E0,9.209482074E-1,3.809347239E0
4.550347777E0,2.180200517E-1,-4.202601910E0,8.135809302E-1,4.286176558E0
4.555260277E0,1.856457293E-1,-4.687685013E0,7.862133384E-1,4.756783212E0
4.560172777E0,1.469727755E-1,-5.125342846E0,8.674236536E-1,5.200304230E0
4.565085329E0,1.426792443E-1,-5.582723618E0,9.833033681E-1,5.670453762E0
4.569997829E0,1.418595612E-1,-5.988180161E0,1.136608124E0,6.096745345E0
4.574910329E0,1.684769988E-1,-6.382523537E0,1.306030512E0,6.516955339E0
4.579822881E0,1.555159092E-1,-6.773034573E0,1.403248072E0,6.918618914E0
4.584735381E0,6.943100691E-2,-7.133518696E0,1.423408031E0,7.274475931E0
4.589647881E0,-5.174309015E-2,-7.507177353E0,1.371186018E0,7.631549007E0
4.594560433E0,-1.460359693E-1,-7.920425415E0,1.342071295E0,8.034651244E0
4.599472933E0,-2.830290794E-1,-8.282473564E0,1.295314074E0,8.387926582E0
4.604385433E0,-3.502045870E-1,-8.655656815E0,1.273939252E0,8.755909968E0
4.609297933E0,-4.119397402E-1,-8.987399101E0,1.338004947E0,9.095784419E0
4.614210485E0,-5.715351105E-1,-9.287420273E0,1.380335569E0,9.406814232E0
4.619122985E0,-8.176550865E-1,-9.548720360E0,1.406109571E0,9.686266798E0
4.624035485E0,-1.055484176E0,-9.864779472E0,1.377211571E0,1.001621848E1
4.628948037E0,-1.235291004E0,-1.020219040E1,1.317689419E0,1.036083675E1
4.633860537E0,-1.369777322E0,-1.057062531E1,1.287676573E0,1.073650410E1
4.638773037E0,-1.497632027E0,-1.088885689E1,1.289638758E0,1.106676439E1
4.643685589E0,-1.583240867E0,-1.111398983E1,1.204124689E0,1.129058625E1
4.648598089E0,-1.571788192E0,-1.130361748E1,1.045447588E0,1.146015911E1
4.653510589E0,-1.446282029E0,-1.146739769E1,8.180086017E-1,1.158715149E1
4.658423141E0,-1.270727873E0,-1.160540009E1,4.614066482E-1,1.168387592E1
4.663335641E0,-1.063638806E0,-1.174165344E1,4.643321037E-2,1.178982227E1
4.668248141E0,-8.600883484E-1,-1.183561516E1,-4.018007517E-1,1.187362548E1
4.673160693E0,-7.264535427E-1,-1.189944458E1,-8.271232843E-1,1.195025728E1
4.678073193E0,-7.199095488E-1,-1.193577385E1,-1.266633153E0,1.202436388E1
4.682985693E0,-7.445065975E-1,-1.200219536E1,-1.666278362E0,1.214015927E1
4.687898245E0,-7.978733778E-1,-1.204384804E1,-1.967274308E0,1.222951535E1
4.692810745E0,-8.752291203E-1,-1.208953285E1,-2.179731369E0,1.231560228E1
4.697723245E0,-9.502069950E-1,-1.214162159E1,-2.306221485E0,1.239518155E1
4.702635745E0,-1.006078839E0,-1.216174698E1,-2.325000286E0,1.242279802E1
4.707548297E0,-1.042996407E0,-1.214265823E1,-2.245407343E0,1.239249146E1
4.712460797E0,-1.108891726E0,-1.211052895E1,-2.081381321E0,1.233801850E1
4.717373297E0,-1.096109748E0,-1.204843712E1,-1.892313242E0,1.224529065E1
4.722285850E0,-1.078939080E0,-1.200641632E1,-1.651396275E0,1.216738477E1
4.727198350E0,-9.950618148E-1,-1.191248322E1,-1.399031281E0,1.203555952E1
4.732110850E0,-8.850452304E-1,-1.183104324E1,-1.137492418E0,1.191850571E1
4.737023402E0,-8.181803226E-1,-1.171163654E1,-8.809192181E-1,1.177318429E1
4.741935902E0,-8.517990708E-1,-1.152300835E1,-6.149022579E-1,1.157079893E1
4.746848402E0,-8.877776265E-1,-1.132718086E1,-2.819736600E-1,1.136541616E1
4.751760954E0,-9.357606769E-1,-1.111194420E1,4.397314787E-2,1.115136250E1
4.756673454E0,-9.695318937E-1,-1.086749077E1,3.441660404E-1,1.091607979E1
4.761585954E0,-1.001346350E0,-1.059838200E1,6.214510202E-1,1.066370465E1
4.766498454E0,-1.127482653E0,-1.027809906E1,8.621603251E-1,1.037563771E1
4.771411006E0,-1.267435431E0,-9.870613098E0,1.105441213E0,1.001286152E1
4.776323506E0,-1.381769896E0,-9.359087944E0,1.409839392E0,9.565012405E0
4.781236006E0,-1.457212448E0,-8.731492996E0,1.760183930E0,9.025557353E0
4.786148558E0,-1.393972993E0,-8.009321213E0,2.009934902E0,8.374498511E0
4.791061058E0,-1.149097919E0,-7.163856506E0,2.227662563E0,7.589713207E0
4.795973558E0,-8.155367374E-1,-6.238187790E0,2.330829620E0,6.709161929E0
4.800886110E0,-3.710992634E-1,-5.184523106E0,2.341693163E0,5.700922852E0
4.805798610E0,8.021944016E-2,-4.012531757E0,2.282020330E0,4.616758934E0
4.810711110E0,5.973142385E-1,-2.760590553E0,2.044012308E0,3.486492624E0
4.815623662E0,1.232133627E0,-1.469429016E0,1.780126572E0,2.616529289E0
4.820536162E0,1.852315784E0,-9.126567841E-2,1.424791098E0,2.338681863E0
4.825448662E0,2.351349354E0,1.433537483E0,1.061094880E0,2.951236325E0
4.830361162E0,2.720265150E0,3.083208084E0,7.796616554E-1,4.184959602E0
4.835273714E0,3.064836502E0,4.824005127E0,6.042710543E-1,5.747120301E0
4.840186214E0,3.562994719E0,6.610188484E0,5.587816238E-1,7.530057109E0
4.845098714E0,4.245335579E0,8.419794083E0,5.835021734E-1,9.447554253E0
4.850011266E0,4.999238968E0,1.030008793E1,6.069213152E-1,1.146527606E1
4.854923766E0,5.678168297E0,1.211895943E1,5.692894459E-1,1.339532991E1
4.859836266E0,6.103753090E0,1.380677795E1,5.421675444E-1,1.510552432E1
4.864748818E0,6.281050682E0,1.533479214E1,6.447967291E-1,1.658382376E1
4.869661318E0,6.355974674E0,1.674122810E1,8.173470497E-1,1.792582463E1
4.874573818E0,6.368840218E0,1.804275322E1,1.007472277E0,1.916032541E1
4.879486370E0,6.328751087E0,1.913399887E1,1.383311033E0,2.020090475E1
4.884398870E0,6.347815514E0,2.000760651E1,1.845479965E0,2.107142321E1
4.889311370E0,6.375403404E0,2.062012482E1,2.417456388E0,2.171818159E1
4.894223922E0,6.267389774E0,2.109306717E1,3.091931820E0,2.222065930E1
4.899136422E0,6.087385178E0,2.148562241E1,3.849723816E0,2.266072819E1
4.904048922E0,5.844100952E0,2.172299957E1,4.578260422E0,2.295653926E1
4.908961422E0,5.632307053E0,2.175213242E1,5.212548733E0,2.306618329E1
4.913873975E0,5.439288139E0,2.156562042E1,5.785146236E0,2.298107388E1
4.918786475E0,5.257624626E0,2.115869522E1,6.119709969E0,2.264473118E1
4.923698975E0,5.075236320E0,2.055794525E1,6.269058228E0,2.208366427E1
4.928611527E0,4.870653152E0,1.985475540E1,6.285281658E0,2.138783158E1
4.933524027E0,4.677486420E0,1.894214630E1,6.136214256E0,2.045328607E1
4.938436527E0,4.536656380E0,1.798358154E1,5.897102356E0,1.946191852E1
4.943349027E0,4.330781937E0,1.693432236E1,5.640913963E0,1.836700455E1
4.948261579E0,4.150742054E0,1.585731888E1,5.342391968E0,1.724019645E1
4.953174079E0,3.960769176E0,1.471495247E1,5.074479103E0,1.606137780E1
4.958086631E0,3.844868660E0,1.350311184E1,4.776031494E0,1.482995351E1
4.962999131E0,3.671455145E0,1.222721767E1,4.477057457E0,1.352880181E1
4.967911631E0,3.392513037E0,1.095726871E1,4.185913563E0,1.221035441E1
4.972824131E0,3.079328060E0,9.696159363E0,3.911187172E0,1.089931891E1
4.977736683E0,2.704903603E0,8.487337112E0,3.671317339E0,9.634830863E0
4.982649183E0,2.333017826E0,7.290425301E0,3.499243259E0,8.416529964E0
4.987561683E0,1.979716897E0,6.129549026E0,3.404232025E0,7.285564216E0
4.992474235E0,1.708945036E0,5.000027657E0,3.362333059E0,6.263070597E0
4.997386735E0,1.484519601E0,3.918657303E0,3.347240210E0,5.363179143E0
5.002299235E0,1.318063974E0,2.885473251E0,3.335142612E0,4.602871361E0
5.007211735E0,1.147301078E0,1.881387711E0,3.302094936E0,3.969855218E0
5.012124287E0,9.599485397E-1,9.304065704E-1,3.228876591E0,3.494681906E0
5.017036787E0,8.154919147E-1,8.707046509E-3,3.091197014E0,3.196967603E0
5.021949287E0,6.753973961E-1,-8.740406036E-1,2.938750505E0,3.139484536E0
5.026861839E0,5.850026011E-1,-1.693866730E0,2.785293818E0,3.311989461E0
5.031774339E0,5.060061216E-1,-2.484248161E0,2.620589733E0,3.646233902E0
5.036686839E0,4.551615417E-1,-3.149528027E0,2.465499640E0,4.025591546E0
5.041599391E0,4.590106010E-1,-3.854826927E0,2.268977880E0,4.496514427E0
5.046511891E0,4.626927972E-1,-4.549895287E0,2.126049042E0,5.043383415E0
5.051424391E0,4.711890817E-1,-5.148714542E0,1.978720665E0,5.535938589E0
5.056336943E0,3.789079487E-1,-5.732773781E0,1.807399511E0,6.022869702E0
5.061249443E0,2.288606018E-1,-6.283061028E0,1.637833714E0,6.497055666E0
5.066161943E0,1.404874623E-1,-6.845173359E0,1.474282980E0,7.003545198E0
5.071074443E0,9.915253520E-2,-7.347508430E0,1.304537773E0,7.463077794E0
5.075986995E0,7.861274481E-2,-7.821369171E0,1.190564513E0,7.911854368E0
5.080899495E0,3.081563115E-2,-8.286077499E0,1.112979770E0,8.360547464E0
5.085811995E0,-3.469896317E-2,-8.698761940E0,9.568624496E-1,8.751299849E0
5.090724547E0,-1.181969047E-1,-9.114649773E0,8.752648830E-1,9.157341295E0
5.095637047E0,-2.802261114E-1,-9.514815331E0,8.512891531E-1,9.556931028E0
5.100549547E0,-4.975000620E-1,-9.913825989E0,8.540095091E-1,9.962970656E0
5.105462100E0,-6.798183322E-1,-1.028556633E1,8.957685232E-1,1.034685599E1
5.110374600E0,-8.156102300E-1,-1.060152721E1,9.578298926E-1,1.067590921E1
5.115287100E0,-9.361248016E-1,-1.088339520E1,1.043154240E0,1.097327624E1
5.120199652E0,-9.410755634E-1,-1.114563084E1,1.085433364E0,1.123783233E1
5.125112152E0,-1.024562836E0,-1.133334637E1,1.121062398E0,1.143465127E1
5.130024652E0,-1.091163754E0,-1.150175476E1,1.080742598E0,1.160383581E1
5.134937152E0,-1.162858009E0,-1.166537952E1,9.046591520E-1,1.175804943E1
5.139849704E0,-1.180222273E0,-1.179811478E1,7.025133371E-1,1.187779280E1
5.144762204E0,-1.205693364E0,-1.187387848E1,5.072872043E-1,1.194571165E1
5.149674704E0,-1.098053455E0,-1.190963936E1,2.514269352E-1,1.196279426E1
5.154587256E0,-9.431941509E-1,-1.189361954E1,-4.164254665E-2,1.193103244E1
5.159499756E0,-8.293281794E-1,-1.181641006E1,-2.741605043E-1,1.184864954E1
5.164412256E0,-7.127816677E-1,-1.180489826E1,-4.323412180E-1,1.183429760E1
5.169324756E0,-5.565942526E-1,-1.175858212E1,-5.693414211E-1,1.178550806E1
5.174237308E0,-2.998207808E-1,-1.175160789E1,-7.214466333E-1,1.177754923E1
5.179149808E0,-8.760702610E-2,-1.170986938E1,-9.443066120E-1,1.174820969E1
5.184062308E0,2.316737175E-2,-1.165272999E1,-1.298752069E0,1.172490554E1
5.188974860E0,6.852996349E-2,-1.161638069E1,-1.704836011E0,1.174101625E1
5.193887360E0,6.306624413E-2,-1.168235588E1,-2.128117085E0,1.187477573E1
5.198799860E0,-5.525982380E-2,-1.171208000E1,-2.546097040E0,1.198576163E1
5.203712412E0,-2.602410316E-1,-1.167231750E1,-2.838075161E0,1.201521502E1
5.208624912E0,-5.498203039E-1,-1.165886974E1,-3.093458652E0,1.207480983E1
5.213537412E0,-8.622770309E-1,-1.162619495E1,-3.214469910E0,1.209316946E1
5.218449964E0,-1.178828359E0,-1.160276031E1,-3.167504549E0,1.208498110E1
5.223362464E0,-1.514397621E0,-1.151642799E1,-3.016309977E0,1.200081830E1
5.228274964E0,-1.831435680E0,-1.148157692E1,-2.709251642E0,1.193820798E1
5.233187464E0,-2.185323954E0,-1.147364902E1,-2.242033005E0,1.189314823E1
5.238100016E0,-2.495249271E0,-1.145860100E1,-1.712960362E0,1.185158382E1
5.243012516E0,-2.763987064E0,-1.136901474E1,-1.272880316E0,1.176921174E1
5.247925016E0,-3.064283371E0,-1.116402817E1,-8.814015388E-1,1.161043609E1
5.252837568E0,-3.363761902E0,-1.085793209E1,-4.721148610E-1,1.137683945E1
5.257750068E0,-3.584857941E0,-1.031921387E1,-1.173565388E-1,1.092479537E1
5.262662568E0,-3.654276848E0,-9.574332237E0,1.393275261E-1,1.024895064E1
5.267575120E0,-3.534048557E0,-8.630598068E0,2.947256267E-1,9.330786967E0
5.272487620E0,-3.333817005E0,-7.564655304E0,3.738443851E-1,8.275149867E0
5.277400120E0,-2.959178448E0,-6.412417889E0,3.362261355E-1,7.070282051E0
5.282312620E0,-2.492119789E0,-5.204965591E0,1.884233057E-1,5.773892205E0
5.287225172E0,-1.863313675E0,-3.884871960E0,-6.368504465E-2,4.309086188E0
5.292137672E0,-1.192657113E0,-2.485675812E0,-3.980548084E-1,2.785581243E0
5.297050172E0,-5.618749857E-1,-1.079134941E0,-8.266275525E-1,1.470900687E0
5.301962672E0,-4.344508052E-2,2.750606537E-1,-1.187140107E0,1.219363552E0
5.306875225E0,4.167311490E-1,1.538891792E0,-1.559324503E0,2.230099931E0
5.311787725E0,8.892467618E-1,2.703158379E0,-1.795246363E0,3.364629924E0
5.316700277E0,1.408387303E0,3.696555138E0,-1.745897532E0,4.323914069E0
5.321612777E0,1.953039646E0,4.689353943E0,-1.327915788E0,5.250501367E0
5.326525277E0,2.428007126E0,5.708069801E0,-6.193319559E-1,6.233847250E0
5.331437777E0,2.838325977E0,6.649929047E0,2.646614313E-1,7.235170789E0
5.336350329E0,3.174584389E0,7.402538300E0,1.362616181E0,8.168982934E0
5.341262829E0,3.427432060E0,7.973006248E0,2.505198479E0,9.032836685E0
5.346175329E0,3.587058544E0,8.478240013E0,3.630939960E0,9.896022823E0
5.351087881E0,3.511695147E0,8.970301628E0,4.740467072E0,1.073640266E1
5.356000381E0,3.212802887E0,9.350376129E0,5.676501274E0,1.140062730E1
5.360912881E0,2.813744783E0,9.644021988E0,6.475385666E0,1.195219391E1
5.365825381E0,2.368243217E0,9.781188011E0,7.060213566E0,1.229336530E1
5.370737933E0,1.915672541E0,9.797236443E0,7.348651886E0,1.239589963E1
5.375650433E0,1.533893466E0,9.686940193E0,7.425338268E0,1.230143438E1
5.380562933E0,1.210106850E0,9.514598846E0,7.252213478E0,1.202441475E1
5.385475485E0,9.577861428E-1,9.308686256E0,7.006290436E0,1.169004276E1
5.390387985E0,7.093129158E-1,9.107336044E0,6.677573204E0,1.131532936E1
5.395300485E0,5.596359968E-1,8.908072472E0,6.246502876E0,1.089429877E1
5.400212985E0,5.297248363E-1,8.710830688E0,5.765386105E0,1.045939083E1
5.405125537E0,6.599038243E-1,8.493943214E0,5.389689445E0,1.008123488E1
5.410038037E0,8.402501941E-1,8.343382835E0,5.023648739E0,9.775229111E0
5.414950537E0,1.047467947E0,8.129925728E0,4.640655518E0,9.419584124E0
5.419863089E0,1.306174755E0,7.896861076E0,4.175373077E0,9.027748761E0
5.424775589E0,1.557448149E0,7.565692902E0,3.600200415E0,8.522135697E0
5.429688089E0,1.828450203E0,7.235123634E0,2.930126190E0,8.017224185E0
5.434600641E0,2.062682152E0,6.893846512E0,2.172597170E0,7.516645252E0
5.439513141E0,2.292268276E0,6.533012390E0,1.368244171E0,7.057395897E0
5.444425641E0,2.431968927E0,6.060043335E0,5.099372864E-1,6.549704888E0
5.449338141E0,2.561387062E0,5.585659027E0,-2.849466801E-1,6.151543307E0
5.454250693E0,2.633301735E0,5.105562210E0,-1.006498218E0,5.832159306E0
5.459163193E0,2.607134342E0,4.579393387E0,-1.593779564E0,5.505281697E0
5.464075693E0,2.535475254E0,4.055186272E0,-1.994971395E0,5.181995883E0
5.468988245E0,2.355702877E0,3.611882210E0,-2.260560989E0,4.868795039E0
5.473900745E0,2.124836445E0,3.160865784E0,-2.414342880E0,4.509440538E0
5.478813245E0,1.882868290E0,2.692495346E0,-2.451118469E0,4.099110384E0
5.483725797E0,1.657813072E0,2.185073853E0,-2.338959217E0,3.604666717E0
5.488638297E0,1.417635560E0,1.722078323E0,-2.167651176E0,3.110298371E0
5.493550797E0,1.135093451E0,1.279284477E0,-1.916892529E0,2.568945870E0
5.498463297E0,8.452212811E-1,8.922777176E-1,-1.662130833E0,2.067181038E0
5.503375850E0,6.263417006E-1,5.225048065E-1,-1.447855234E0,1.661806240E0
5.508288350E0,3.630523086E-1,2.128143311E-1,-1.244615197E0,1.313835571E0
5.513200850E0,1.865385771E-1,-9.200477600E-2,-1.016005516E0,1.037077012E0
5.518113402E0,7.984185219E-2,-3.609466553E-1,-7.976948023E-1,8.791895171E-1
5.523025902E0,-4.076510668E-2,-5.582189560E-1,-6.159317493E-1,8.322512341E-1
5.527938402E0,-1.009954810E-1,-7.532653809E-1,-4.874489307E-1,9.028927297E-1
5.532850902E0,-1.893370748E-1,-9.245090485E-1,-3.956916332E-1,1.023297306E0
5.537763454E0,-2.889060974E-1,-1.098152161E0,-3.028457165E-1,1.175210802E0
5.542675954E0,-3.420495391E-1,-1.197537422E0,-2.931551933E-1,1.279466190E0
5.547588454E0,-3.197336197E-1,-1.282408237E0,-2.929329872E-1,1.353739343E0
5.552501006E0,-3.149919510E-1,-1.367093086E0,-2.736690044E-1,1.429355855E0
5.557413506E0,-3.204632998E-1,-1.403720856E0,-2.284243107E-1,1.457843144E0
5.562326006E0,-3.001158535E-1,-1.387574673E0,-1.787726879E-1,1.430871298E0
5.567238506E0,-2.683500350E-1,-1.304393768E0,-1.222500801E-1,1.337310707E0
5.572151058E0,-2.992757857E-1,-1.199669838E0,-1.187386513E-1,1.242124222E0
5.577063558E0,-3.187685013E-1,-1.073360443E0,-1.492562294E-1,1.129598787E0
5.581976058E0,-2.597042620E-1,-1.009142876E0,-1.661143303E-1,1.055182268E0
5.586888610E0,-1.338120997E-1,-9.567308426E-1,-1.478636265E-1,9.772938326E-1
5.591801110E0,1.870369911E-2,-9.185352325E-1,-1.017048359E-1,9.243379660E-1
5.596713610E0,1.097097397E-1,-8.945369720E-1,-9.470415115E-2,9.062016870E-1
5.601626110E0,1.297362447E-1,-8.249177933E-1,-9.101605415E-2,8.400028458E-1
5.606538662E0,1.003158092E-1,-7.838315964E-1,-8.353567123E-2,7.946278635E-1
5.611451162E0,7.402676344E-2,-7.042694092E-1,-1.273105145E-1,7.195021400E-1
5.616363662E0,5.810469389E-2,-7.106361389E-1,-1.672096252E-1,7.323516479E-1
5.621276214E0,5.483245850E-2,-7.121210098E-1,-2.573204041E-2,7.146922898E-1
5.626188714E0,9.290814400E-2,-7.160644531E-1,1.683201790E-1,7.414255909E-1
5.631101214E0,1.507665515E-1,-7.202234268E-1,3.532207012E-1,8.162212944E-1
5.636013714E0,1.303422451E-1,-6.506071091E-1,4.600880146E-1,8.074402098E-1
5.640926266E0,3.375864029E-2,-5.360174179E-1,5.489003658E-1,7.679491713E-1
5.645838766E0,-8.437800407E-2,-4.242219925E-1,5.524597168E-1,7.016378590E-1
5.650751266E0,-1.670055687E-1,-3.796529770E-1,4.729011059E-1,6.290172485E-1
5.655663818E0,-2.263008058E-1,-3.543453217E-1,3.938472271E-1,5.760974744E-1
5.660576318E0,-3.391747475E-1,-3.410320282E-1,3.246879578E-1,5.803142455E-1
5.665488818E0,-4.221472144E-1,-2.679586411E-1,2.917306423E-1,5.788927980E-1
5.670401318E0,-4.083723724E-1,-2.093687057E-1,2.687757015E-1,5.318304497E-1
5.675313870E0,-3.766619563E-1,-1.581335068E-1,2.822699547E-1,4.965448244E-1
5.680226370E0,-3.438339233E-1,-1.238546371E-1,2.868974209E-1,4.646201331E-1
5.685138870E0,-2.929761410E-1,-7.540607452E-2,2.610518932E-1,3.995862688E-1
5.690051422E0,-1.901904047E-1,-4.387283325E-2,1.831133366E-1,2.676335359E-1
5.694963922E0,-3.023087978E-2,1.624107361E-2,1.079220772E-1,1.132468689E-1
5.699876422E0,7.476702332E-2,5.715942383E-2,3.514552116E-2,1.004615109E-1
5.704788975E0,1.105633080E-1,7.418823242E-2,-7.607674599E-2,1.533486556E-1
5.709701475E0,8.199518919E-2,7.943820953E-2,-2.069723606E-1,2.363708913E-1
5.714613975E0,8.715996146E-2,8.731842041E-2,-2.811505795E-1,3.070293370E-1
5.719526475E0,8.295255899E-2,1.025981903E-1,-2.890908718E-1,3.177751530E-1
5.724439027E0,1.149177551E-1,1.084547043E-1,-2.688939571E-1,3.118853532E-1
5.729351527E0,9.460264444E-2,1.406631470E-1,-2.035274506E-1,2.648758282E-1
5.734264027E0,2.198943496E-2,1.608171463E-1,-1.404829025E-1,2.146651711E-1
5.739176579E0,-4.100859165E-2,1.616897583E-1,-2.926588058E-2,1.693569435E-1
5.744089079E0,-7.063242793E-2,1.360940933E-1,6.085443497E-2,1.649660704E-1
5.749001579E0,-1.195701361E-1,1.198797226E-1,8.226490021E-2,1.882436696E-1
5.753914079E0,-1.544596255E-1,1.058626175E-1,9.482884407E-2,2.098980213E-1
5.758826631E0,-1.898370683E-1,1.322803497E-1,9.147262573E-2,2.488040287E-1
5.763739131E0,-2.305454016E-1,1.751976013E-1,1.151783466E-1,3.116270740E-1
5.768651631E0,-2.432040125E-1,1.843595505E-1,1.181719303E-1,3.272632590E-1
5.773564183E0,-2.277135998E-1,1.813430786E-1,1.147632599E-1,3.129047803E-1
5.778476683E0,-2.030591369E-1,1.805381775E-1,6.179881096E-2,2.786505691E-1
5.783389183E0,-1.453069150E-1,1.963415146E-1,6.198811531E-2,2.520051911E-1
5.788301683E0,-6.390768290E-2,2.359075546E-1,5.306482315E-2,2.501048614E-1
5.793214235E0,-1.603567600E-2,2.800645828E-1,4.939341545E-2,2.848385910E-1
5.798126735E0,7.507660985E-2,3.168735504E-1,3.650689125E-2,3.276859738E-1
5.803039235E0,1.235224903E-1,3.703002930E-1,-2.162098885E-2,3.909572607E-1
5.807951787E0,1.197606921E-1,4.260559082E-1,-7.497334480E-2,4.488733259E-1
5.812864287E0,1.139826477E-1,4.459552765E-1,-1.094481945E-1,4.731247826E-1
5.817776787E0,1.039268970E-1,4.492521286E-1,-1.540420055E-1,4.861658302E-1
5.822689287E0,1.184276938E-1,4.479579926E-1,-2.017116547E-1,5.053504461E-1
5.827601839E0,1.143530607E-1,4.612913132E-1,-2.240314484E-1,5.254106850E-1
5.832514339E0,1.037559509E-1,4.461584091E-1,-2.304852009E-1,5.127826549E-1
5.837426839E0,3.386217356E-2,4.216947556E-1,-2.305359840E-1,4.817882871E-1
5.842339391E0,-3.560537100E-2,3.902025223E-1,-1.712391376E-1,4.276079900E-1
5.847251891E0,-1.144428551E-1,3.372316360E-1,-7.856845856E-2,3.646852700E-1
5.852164391E0,-1.813375354E-1,3.033370972E-1,3.592491150E-2,3.552285117E-1
5.857076891E0,-2.196370959E-1,2.764244080E-1,1.199851036E-1,3.728905098E-1
5.861989443E0,-2.031072527E-1,2.110662460E-1,1.544852257E-1,3.311603860E-1
5.866901943E0,-1.651728153E-1,1.001844406E-1,1.632316113E-1,2.529101421E-1
5.871814443E0,-1.010275185E-1,1.803398132E-2,1.149146557E-1,1.540686927E-1
5.876726943E0,-9.199196100E-2,1.253509521E-2,4.265165329E-2,1.021705096E-1
5.881639495E0,-6.597071886E-2,4.547977448E-2,-5.884099007E-2,9.941231184E-2
5.886551995E0,-8.029854298E-2,9.060192108E-2,-1.515610218E-1,1.939775952E-1
5.891464495E0,-7.744967937E-2,6.429004669E-2,-1.975705624E-1,2.217336015E-1
5.896377047E0,-5.258005857E-2,9.778022766E-3,-2.235891819E-1,2.298964866E-1
5.901289547E0,-2.834302485E-1,-6.279659271E-2,-8.697761297E-1,9.169441824E-1
5.906202047E0,-4.665651321E-1,-6.700038910E-2,-1.404647708E0,1.481623184E0
5.911114547E0,-3.315227330E-1,-9.220409393E-2,-5.345067978E-1,6.356936639E-1
5.916027100E0,-9.790578485E-2,-1.585445404E-1,4.222540855E-1,4.615413597E-1
5.920939600E0,6.722265482E-2,-1.805534363E-1,9.535059929E-1,9.727754659E-1
5.925852100E0,5.839437246E-2,-2.205276489E-1,1.100688934E0,1.124081170E0
5.930764652E0,-1.742935181E-2,-3.497419357E-1,8.534309864E-1,9.224790797E-1
5.935677152E0,-2.303326279E-1,-3.952150345E-1,2.172214985E-1,5.063923601E-1
5.940589652E0,-4.877247214E-1,-1.604442596E-1,-3.380353451E-1,6.147240510E-1
5.945502204E0,-5.528248549E-1,2.685451508E-2,-5.811908245E-1,8.025704079E-1
5.950414704E0,-3.629456758E-1,3.035354614E-2,-5.483176708E-1,6.582576771E-1
5.955327204E0,-1.544922590E-2,-6.381225586E-2,-4.377841949E-1,4.426801147E-1
