"Time (s)","Linear Acceleration x (m/s^2)","Linear Acceleration y (m/s^2)","Linear Acceleration z (m/s^2)","Absolute acceleration (m/s^2)"
5.488231400E-2,0.000000000E0,0.000000000E0,0.000000000E0,0.000000000E0
5.979502200E-2,7.592809200E-2,-4.047966003E-2,3.156924248E-2,9.165312380E-2
6.470773000E-2,1.644913554E-1,-3.637027740E-2,4.471480846E-2,1.742974962E-1
6.962043900E-2,2.715854049E-1,-5.590057373E-2,5.136489868E-3,2.773263237E-1
7.453309500E-2,2.936283350E-1,-7.151222229E-2,-9.090697765E-2,3.155878256E-1
7.944580300E-2,2.532817721E-1,-1.214475632E-1,-2.227298021E-1,3.584825400E-1
8.435851200E-2,1.755696535E-1,-1.615514755E-1,-3.917979002E-1,4.587256011E-1
8.927122000E-2,5.764317513E-2,-2.397871017E-1,-4.793534279E-1,5.390735559E-1
9.418392800E-2,-2.840638161E-3,-2.450094223E-1,-4.675751328E-1,5.278865324E-1
9.909658400E-2,-7.031440735E-3,-1.621942520E-1,-4.680828452E-1,4.954371469E-1
1.040092930E-1,-4.098856449E-2,-1.493482590E-1,-4.788265228E-1,5.032492462E-1
1.089220010E-1,-6.567746401E-2,-1.583652496E-1,-4.722873569E-1,5.024424634E-1
1.138347090E-1,-9.976208210E-2,-2.073450089E-1,-5.067236423E-1,5.565188905E-1
1.187474180E-1,-1.117070913E-1,-1.738147736E-1,-5.324304104E-1,5.711148673E-1
1.236600740E-1,-1.343194246E-1,-1.029920578E-1,-5.274049044E-1,5.538998149E-1
1.285727820E-1,-1.154769659E-1,-5.453109741E-3,-4.615986943E-1,4.758550416E-1
1.334854910E-1,-1.567625999E-1,1.247959137E-1,-3.938196898E-1,4.418625135E-1
1.383981990E-1,-2.396716475E-1,2.303256989E-1,-3.458371758E-1,4.796829978E-1
1.433108550E-1,-2.197254896E-1,3.084936142E-1,-2.705714703E-1,4.654637701E-1
1.482235640E-1,-1.749106646E-1,3.769350052E-1,-1.935921907E-1,4.584230306E-1
1.531362720E-1,-1.175169945E-1,4.500102997E-1,-4.118359089E-2,4.669214088E-1
1.580489800E-1,-1.070902348E-1,5.368413925E-1,8.604335785E-2,5.541393855E-1
1.629616890E-1,-5.644726753E-2,6.759738922E-1,1.510565281E-1,6.949424952E-1
1.678743970E-1,-1.254600286E-2,8.495311737E-1,1.798895597E-1,8.684589058E-1
1.727870530E-1,2.767854929E-2,9.853248596E-1,1.949599981E-1,1.004808729E0
1.776997620E-1,2.644538879E-3,1.126522064E0,2.199047804E-1,1.147787902E0
1.826124700E-1,4.745304585E-3,1.263996124E0,2.428003550E-1,1.287113333E0
1.875251780E-1,2.413880825E-2,1.430439949E0,2.359392643E-1,1.449968436E0
1.924378870E-1,2.771669626E-2,1.680665970E0,1.886016130E-1,1.691442250E0
1.973505430E-1,2.249258757E-2,1.910562515E0,1.945271492E-1,1.920571752E0
2.022632510E-1,9.884047508E-2,2.130442619E0,1.755616665E-1,2.139947918E0
2.071759590E-1,2.611060739E-1,2.327030182E0,2.322046757E-1,2.353118114E0
2.120886680E-1,3.512389660E-1,2.577888489E0,2.787456512E-1,2.616596455E0
2.170013760E-1,4.107328057E-1,2.884050369E0,2.507517338E-1,2.923922776E0
2.219140320E-1,3.426505923E-1,3.202389717E0,2.578047514E-1,3.230970848E0
2.268267410E-1,3.222699761E-1,3.518910408E0,3.391387463E-1,3.549873728E0
2.317394490E-1,3.222613335E-1,3.752395630E0,4.260350466E-1,3.790228382E0
2.366521570E-1,3.074074388E-1,3.912140846E0,4.605394602E-1,3.951131728E0
2.415648660E-1,2.715952396E-1,4.039671898E0,4.631087780E-1,4.075191131E0
2.464775740E-1,2.441270947E-1,4.212778091E0,4.230324030E-1,4.240996781E0
2.513902300E-1,2.841464281E-1,4.355665207E0,3.550561666E-1,4.379340529E0
2.563029390E-1,3.022655249E-1,4.504160881E0,2.406510115E-1,4.520701561E0
2.612156470E-1,3.585986495E-1,4.578738213E0,1.430565119E-1,4.594986592E0
2.661283550E-1,4.017586708E-1,4.674758911E0,4.184794426E-2,4.692177763E0
2.710410640E-1,4.701417685E-1,4.777867317E0,-3.870081902E-2,4.801098534E0
2.759537200E-1,4.909773469E-1,4.977094650E0,-8.655130863E-2,5.002001704E0
2.808664280E-1,4.862593412E-1,5.200337410E0,-4.719281197E-2,5.223235059E0
2.857791370E-1,4.628515840E-1,5.430917740E0,1.191933155E-1,5.451908485E0
2.906918450E-1,3.378580213E-1,5.645384789E0,4.362511635E-1,5.672286358E0
2.956045530E-1,1.466079950E-1,5.879323006E0,8.342283964E-1,5.940022721E0
3.005172620E-1,-9.288954735E-2,6.036095619E0,1.306640267E0,6.176600002E0
3.054299180E-1,-2.101260424E-1,6.140483856E0,1.878285170E0,6.424768488E0
3.103426260E-1,-2.580434084E-1,6.167296410E0,2.477716923E0,6.651406810E0
3.152553340E-1,-2.179099321E-1,6.105798721E0,3.011241913E0,6.811449231E0
3.201680430E-1,-1.081481874E-1,5.994681358E0,3.490217447E0,6.937544122E0
3.250807510E-1,8.905005455E-2,5.754359245E0,3.843132496E0,6.920278001E0
3.299934590E-1,3.285011947E-1,5.386553764E0,4.116809845E0,6.787561992E0
3.349061160E-1,5.217087269E-1,4.907113075E0,4.304643631E0,6.548426950E0
3.398188240E-1,6.287568212E-1,4.369376183E0,4.337950706E0,6.189070988E0
3.447315320E-1,7.138675451E-1,3.847147942E0,4.237537384E0,5.767744554E0
3.496442410E-1,7.508009672E-1,3.286061287E0,4.030023575E0,5.253854860E0
3.545569490E-1,7.439974546E-1,2.724605560E0,3.738434315E0,4.685392064E0
3.594696050E-1,6.313565373E-1,2.172484398E0,3.384886503E0,4.071333464E0
3.643823140E-1,4.309814274E-1,1.653453827E0,3.014134407E0,3.464774274E0
3.692950220E-1,1.790236533E-1,1.113082886E0,2.665596247E0,2.894202192E0
3.742077300E-1,-3.264951706E-2,5.235767365E-1,2.326562881E0,2.384972417E0
3.791204390E-1,-2.293498963E-1,-9.779453278E-2,2.036742687E0,2.051946861E0
3.840331470E-1,-4.122025073E-1,-6.964378357E-1,1.819565058E0,1.991419987E0
3.889458030E-1,-5.327154398E-1,-1.277624130E0,1.620615721E0,2.131315198E0
3.938585120E-1,-5.709542632E-1,-1.806482315E0,1.426751614E0,2.371705566E0
3.987712200E-1,-5.731317997E-1,-2.350152016E0,1.331539273E0,2.761284374E0
4.036839280E-1,-5.794402361E-1,-2.951272011E0,1.323684812E0,3.286015665E0
4.085966370E-1,-5.279442668E-1,-3.507899284E0,1.318945646E0,3.784666452E0
4.135093450E-1,-3.952911496E-1,-4.103647232E0,1.387869596E0,4.349983645E0
4.184220530E-1,-2.411102653E-1,-4.700560570E0,1.453851223E0,4.926163539E0
4.233347090E-1,-7.932677120E-2,-5.258789062E0,1.512641788E0,5.472589910E0
4.282474180E-1,3.613588214E-2,-5.911434650E0,1.588566780E0,6.121267013E0
4.331601260E-1,1.227245182E-1,-6.570104122E0,1.726940632E0,6.794383962E0
4.380728340E-1,1.785092503E-1,-7.175869942E0,1.901548505E0,7.425689307E0
4.429855430E-1,1.585631073E-1,-7.769790649E0,2.036772013E0,8.033880085E0
4.478982510E-1,6.788942218E-2,-8.319080353E0,2.060660839E0,8.570766009E0
4.528109070E-1,-2.241423726E-2,-8.909561157E0,2.057920456E0,9.144168580E0
4.577236160E-1,-5.649524927E-2,-9.628406525E0,2.029288530E0,9.840092269E0
4.626363240E-1,-2.883893251E-2,-1.038677979E1,1.998909235E0,1.057741292E1
4.675490320E-1,7.016861439E-2,-1.125548744E1,1.971349955E0,1.142703557E1
4.724617410E-1,1.838912964E-1,-1.214841843E1,1.915550232E0,1.229988695E1
4.773744490E-1,2.066687346E-1,-1.303020000E1,1.824300051E0,1.315890933E1
4.822871570E-1,1.290294528E-1,-1.387767982E1,1.695232391E0,1.398143264E1
4.871998140E-1,-3.910523653E-2,-1.463005829E1,1.499981642E0,1.470680386E1
4.921125220E-1,-1.998534799E-1,-1.525792313E1,1.264766097E0,1.531155749E1
4.970252300E-1,-2.727807760E-1,-1.585051632E1,1.001291752E0,1.588445347E1
5.019379390E-1,-2.700177431E-1,-1.647000694E1,7.801964879E-1,1.649068661E1
5.068506470E-1,-2.574973106E-1,-1.711390305E1,6.121784449E-1,1.712678443E1
5.117633550E-1,-1.938740015E-1,-1.777264595E1,4.461205602E-1,1.777930130E1
5.166760120E-1,-1.469007730E-1,-1.840118790E1,2.884663343E-1,1.840403512E1
5.215887200E-1,-1.009860039E-1,-1.897863388E1,1.882687807E-1,1.897983633E1
5.265014280E-1,-1.147134304E-1,-1.931845093E1,1.255397797E-1,1.931919941E1
5.314141370E-1,-2.162131071E-1,-1.948482895E1,5.687248707E-2,1.948611151E1
5.363268450E-1,-4.480006695E-1,-1.958866119E1,-1.071083546E-2,1.959378643E1
5.412395530E-1,-7.384417057E-1,-1.956189346E1,-7.226872444E-2,1.957595961E1
5.461522620E-1,-1.054894090E0,-1.947697639E1,-1.630638838E-1,1.950620416E1
5.510649180E-1,-1.372283816E0,-1.930608368E1,-2.350635529E-1,1.935622083E1
5.559776260E-1,-1.642158389E0,-1.906668854E1,-2.217215300E-1,1.913855941E1
5.608903340E-1,-1.780479550E0,-1.874990845E1,-2.301243544E-1,1.883566116E1
5.658030430E-1,-1.729472399E0,-1.833022881E1,-2.643319368E-1,1.841353400E1
5.707157510E-1,-1.542870760E0,-1.782019424E1,-3.307864070E-1,1.788991875E1
5.756284590E-1,-1.185747862E0,-1.727009010E1,-3.411561847E-1,1.731410979E1
5.805411680E-1,-7.820872068E-1,-1.666797066E1,-3.337545395E-1,1.668964644E1
5.854538760E-1,-3.075131178E-1,-1.599243736E1,-3.393009901E-1,1.599899191E1
5.903665320E-1,2.432352304E-1,-1.522460842E1,-2.886586189E-1,1.522928720E1
5.952792410E-1,7.782735825E-1,-1.444297791E1,-2.105911374E-1,1.446546471E1
6.001919490E-1,1.227450967E0,-1.348575497E1,-6.966204941E-2,1.354167921E1
6.051046570E-1,1.513680696E0,-1.234207726E1,-2.740456164E-2,1.243458287E1
6.100173660E-1,1.498222947E0,-1.099174690E1,-6.336843222E-2,1.109356514E1
6.149300740E-1,1.301800251E0,-9.443272591E0,-5.752224475E-2,9.532753533E0
6.198427820E-1,1.034610033E0,-7.792887688E0,-2.151083946E-2,7.861296277E0
6.247554390E-1,8.225340247E-1,-6.126518250E0,-2.612155676E-2,6.181542722E0
6.296681470E-1,6.197479963E-1,-4.398828506E0,-2.992364764E-2,4.442372703E0
6.345808550E-1,5.377900600E-1,-2.595720291E0,-1.653537452E-1,2.655997711E0
6.394935640E-1,3.977725208E-1,-4.777045250E-1,-6.161049008E-1,8.752198811E-1
6.444062720E-1,1.004714966E-1,2.009872437E0,-1.141998768E0,2.313837271E0
6.493189800E-1,3.171724081E-2,4.707584381E0,-1.381878734E0,4.906316900E0
6.542316890E-1,3.183602691E-1,7.379123688E0,-1.509689569E0,7.538698976E0
6.591443450E-1,7.921625376E-1,1.008700562E1,-1.743129253E0,1.026711758E1
6.640570530E-1,1.343681574E0,1.283387756E1,-1.887291193E0,1.304130981E1
6.689697620E-1,1.938246012E0,1.553216076E1,-1.737101793E0,1.574872497E1
6.738824700E-1,2.493644953E0,1.833006287E1,-1.200488210E0,1.853781653E1
6.787951780E-1,2.811396360E0,2.123918915E1,-3.044012785E-1,2.142661348E1
6.837078870E-1,2.969601393E0,2.410694885E1,8.231470585E-1,2.430310858E1
6.886205950E-1,3.081011057E0,2.657741356E1,2.200715303E0,2.684575736E1
6.935333030E-1,3.109343052E0,2.889813614E1,3.885497570E0,2.932349532E1
6.984460120E-1,3.010950327E0,3.103405762E1,6.023026466E0,3.175618683E1
7.033586680E-1,3.016206264E0,3.303094864E1,8.425475121E0,3.422177230E1
7.082713760E-1,3.068930149E0,3.484111786E1,1.083584213E1,3.661607981E1
7.131840840E-1,3.142138720E0,3.642611694E1,1.337783241E1,3.893201037E1
7.180967930E-1,3.368800640E0,3.763300705E1,1.584261417E1,4.097048280E1
7.230095010E-1,3.874325037E0,3.831425858E1,1.798042107E1,4.250045113E1
7.279222090E-1,4.486773968E0,3.826148987E1,1.969977188E1,4.326839216E1
7.328349180E-1,5.116779804E0,3.742027664E1,2.093245316E1,4.318131696E1
7.377476260E-1,5.671591759E0,3.588237000E1,2.147340012E1,4.219974339E1
7.426602820E-1,6.142577648E0,3.384454727E1,2.136168671E1,4.049081747E1
7.475729910E-1,6.416350365E0,3.152483749E1,2.057913780E1,3.819012757E1
7.524856990E-1,6.500747681E0,2.900315857E1,1.921942329E1,3.539532680E1
7.573984070E-1,6.359529972E0,2.628348351E1,1.763119316E1,3.228194695E1
7.623111160E-1,5.991791725E0,2.348174667E1,1.588196659E1,2.897465889E1
7.672238240E-1,5.617747784E0,2.071297836E1,1.395549202E1,2.559965469E1
7.721365320E-1,5.156140327E0,1.792477798E1,1.214958954E1,2.225973888E1
7.770492410E-1,4.584500313E0,1.520242023E1,1.074691200E1,1.917361055E1
7.819618970E-1,4.027183533E0,1.253021812E1,9.634366035E0,1.631090379E1
7.868746050E-1,3.455515146E0,9.915924072E0,8.724003792E0,1.365190013E1
7.917873140E-1,2.919379234E0,7.395385742E0,8.093281746E0,1.134529483E1
7.967000220E-1,2.368917465E0,5.044322014E0,7.684061527E0,9.492194482E0
8.016127300E-1,1.983894706E0,2.773631096E0,7.367569923E0,8.118494579E0
8.065254390E-1,1.751012802E0,5.065402985E-1,7.073159218E0,7.304259732E0
8.114381470E-1,1.664940834E0,-1.861878395E0,6.776090622E0,7.221774246E0
8.163508550E-1,1.744503140E0,-4.271798134E0,6.539941788E0,8.003898368E0
8.212635640E-1,1.984756827E0,-6.635219097E0,6.275455475E0,9.345947440E0
8.261762720E-1,2.297472715E0,-9.000350952E0,6.044256210E0,1.108231615E1
8.310889800E-1,2.620793104E0,-1.139369392E1,5.826902390E0,1.306283312E1
8.360016370E-1,2.871850014E0,-1.387010002E1,5.535006523E0,1.520735001E1
8.409143450E-1,3.079514265E0,-1.641979980E1,5.263349533E0,1.751559540E1
8.458270530E-1,3.235633612E0,-1.891655350E1,5.001052856E0,1.983219228E1
8.507397620E-1,3.291451216E0,-2.132304382E1,4.671083927E0,2.207543599E1
8.556524700E-1,3.325189829E0,-2.357125473E1,4.265863895E0,2.418384857E1
8.605651780E-1,3.286422491E0,-2.578395844E1,3.853981733E0,2.627672469E1
8.654778870E-1,3.134703159E0,-2.796185303E1,3.431623697E0,2.834550458E1
8.703905950E-1,2.968471050E0,-2.994143677E1,3.004416943E0,3.023785669E1
8.753033030E-1,2.698214531E0,-3.171484756E1,2.630678892E0,3.193794591E1
8.802160120E-1,2.169978619E0,-3.320050812E1,2.111889839E0,3.333830567E1
8.851286680E-1,1.265098214E0,-3.429357147E1,1.670271039E0,3.435752208E1
8.900413760E-1,1.428705454E-1,-3.496129227E1,1.224541545E0,3.498302261E1
8.949540840E-1,-1.005521297E0,-3.531639862E1,7.295953035E-1,3.533824265E1
8.998667930E-1,-2.044381380E0,-3.555432892E1,1.567549706E-1,3.561340158E1
9.047795010E-1,-2.923845291E0,-3.559331512E1,-4.300093651E-1,3.571579288E1
9.096922090E-1,-3.646472454E0,-3.530684662E1,-9.671034813E-1,3.550782264E1
9.146049180E-1,-4.343245983E0,-3.464052582E1,-1.583780169E0,3.494764905E1
9.195176260E-1,-4.791161060E0,-3.379476166E1,-2.189483881E0,3.420285046E1
9.244303340E-1,-5.005535603E0,-3.278766632E1,-2.689452887E0,3.327641216E1
9.293430430E-1,-4.989344597E0,-3.162752342E1,-3.310881138E0,3.218937296E1
9.342557510E-1,-4.706792831E0,-3.037228775E1,-3.829788446E0,3.097252075E1
9.391684070E-1,-4.064395428E0,-2.905543709E1,-4.292336464E0,2.965066419E1
9.440811160E-1,-3.185353041E0,-2.756708527E1,-4.641791344E0,2.813604256E1
9.489938240E-1,-2.197108746E0,-2.590250206E1,-4.733218670E0,2.642291163E1
9.539065320E-1,-1.117503047E0,-2.395212173E1,-4.688643456E0,2.443228041E1
9.588192410E-1,-3.383792639E-1,-2.199968719E1,-4.807174206E0,2.252131570E1
9.637319490E-1,-5.713570118E-2,-2.009652710E1,-4.533887863E0,2.060169423E1
9.686446570E-1,2.720792294E-1,-1.812003326E1,-3.848286152E0,1.852616903E1
9.735573660E-1,5.893307924E-1,-1.590775681E1,-3.241587162E0,1.624536625E1
9.784700740E-1,5.653204918E-1,-1.334346008E1,-2.856454611E0,1.365748319E1
9.833827820E-1,8.134162426E-2,-1.048083687E1,-2.720069885E0,1.082835805E1
9.882954910E-1,-6.409177780E-1,-7.395040512E0,-2.445369720E0,7.815192438E0
9.932081990E-1,-1.176700115E0,-4.232498646E0,-2.105030537E0,4.871326463E0
9.981208550E-1,-1.507628322E0,-1.112612247E0,-1.940559626E0,2.697521238E0
1.003033564E0,-1.482931376E0,1.979386330E0,-1.866307020E0,3.098412109E0
1.007946272E0,-1.005755544E0,5.203680992E0,-1.852133751E0,5.614288870E0
1.012858980E0,-1.141787767E-1,8.719774246E0,-1.799271226E0,8.904205559E0
1.017771689E0,9.567292929E-1,1.251005173E1,-1.538094521E0,1.264050869E1
1.022684397E0,1.810713768E0,1.642586517E1,-1.033800721E0,1.655767118E1
1.027597105E0,2.524441242E0,2.019542313E1,-3.861873150E-1,2.035625357E1
1.032509814E0,3.366796255E0,2.346484375E1,5.206823349E-3,2.370515211E1
1.037422522E0,3.787581921E0,2.637273979E1,9.333670139E-1,2.665967657E1
1.042335230E0,4.067261696E0,2.923573303E1,2.863308191E0,2.965584660E1
1.047247939E0,4.186359406E0,3.210406494E1,5.183411121E0,3.278817381E1
1.052160647E0,4.436881542E0,3.493159866E1,7.952941895E0,3.609919373E1
1.057073355E0,4.806138039E0,3.748315430E1,1.108412743E1,3.938202254E1
1.061986064E0,5.315073013E0,3.931635284E1,1.433947563E1,4.218585265E1
1.066898720E0,5.918694973E0,4.025959778E1,1.725911331E1,4.420116691E1
1.071811428E0,6.650352001E0,4.028017044E1,1.937026596E1,4.518768102E1
1.076724137E0,7.749792099E0,3.954900742E1,2.055397415E1,4.523990626E1
1.081636845E0,8.741705894E0,3.826659393E1,2.059172058E1,4.432571026E1
1.086549553E0,9.525449753E0,3.676548004E1,1.912282181E1,4.252195938E1
1.091462262E0,1.028499794E1,3.499229050E1,1.671765518E1,4.012133562E1
1.096374970E0,1.106298161E1,3.293730927E1,1.426116753E1,3.755844516E1
1.101287678E0,1.170902634E1,3.056844521E1,1.228772736E1,3.496454466E1
1.106200387E0,1.207580853E1,2.796440125E1,1.068858910E1,3.228124572E1
1.111113095E0,1.205878830E1,2.520954132E1,9.565795898E0,2.953709194E1
1.116025803E0,1.171865082E1,2.230653381E1,8.946465492E0,2.673850169E1
1.120938512E0,1.117626190E1,1.959163857E1,8.861207962E0,2.423349208E1
1.125851220E0,1.074461746E1,1.703491020E1,9.029602051E0,2.207189804E1
1.130763928E0,1.000482368E1,1.446379566E1,9.237838745E0,1.986543598E1
1.135676584E0,8.779518127E0,1.197869205E1,9.361119270E0,1.755561323E1
1.140589293E0,7.311298370E0,9.420268059E0,9.214215279E0,1.506978093E1
1.145502001E0,5.793786526E0,6.835212708E0,8.921261787E0,1.264424798E1
1.150414709E0,4.393469810E0,4.267695427E0,8.483531952E0,1.046356133E1
1.155327418E0,3.293874264E0,1.723283768E0,7.966499805E0,8.791156566E0
1.160240126E0,2.517001152E0,-7.903594971E-1,7.253800392E0,7.718651635E0
1.165152834E0,1.918627977E0,-3.246709824E0,6.548697472E0,7.556963449E0
1.170065543E0,1.333241105E0,-5.621809959E0,6.056040287E0,8.370059917E0
1.174978251E0,7.548340559E-1,-7.825149536E0,5.797161579E0,9.767795150E0
1.179890959E0,3.146960139E-1,-9.842991829E0,5.708880901E0,1.138309461E1
1.184803668E0,1.699215174E-2,-1.178096390E1,5.848783970E0,1.315293401E1
1.189716376E0,-1.965088546E-1,-1.376100063E1,6.156186581E0,1.507655091E1
1.194629084E0,-2.999272943E-1,-1.590695000E1,6.291961670E0,1.710876373E1
1.199541793E0,-3.697258830E-1,-1.816334724E1,6.215813160E0,1.920104720E1
1.204454501E0,-5.316421390E-1,-2.037963486E1,6.050910473E0,2.126559846E1
1.209367209E0,-7.578235269E-1,-2.240117264E1,5.601412296E0,2.310330391E1
1.214279918E0,-1.027480960E0,-2.419329071E1,4.914100170E0,2.470869104E1
1.219192574E0,-1.301229835E0,-2.565725517E1,4.158787727E0,2.602467017E1
1.224105282E0,-1.611569405E0,-2.673788071E1,3.423463821E0,2.700428716E1
1.229017991E0,-1.961853981E0,-2.766166687E1,2.843944311E0,2.787659779E1
1.233930699E0,-2.244770527E0,-2.842054939E1,2.346488476E0,2.860546505E1
1.238843407E0,-2.427236557E0,-2.920915413E1,1.710118055E0,2.935967755E1
1.243756116E0,-2.578869820E0,-2.982069969E1,1.085206032E0,2.995166726E1
1.248668824E0,-2.821399212E0,-3.044734383E1,4.477981925E-1,3.058106543E1
1.253581532E0,-3.068235874E0,-3.088451385E1,-1.325262785E-1,3.103683023E1
1.258494241E0,-3.251983643E0,-3.099507141E1,-7.959010601E-1,3.117536380E1
1.263406949E0,-3.343666792E0,-3.087605667E1,-1.567855000E0,3.109612761E1
1.268319657E0,-3.409578800E0,-3.057883835E1,-2.243276596E0,3.085000603E1
1.273232366E0,-3.301261425E0,-3.016173553E1,-2.785037518E0,3.046941173E1
1.278145074E0,-3.145285845E0,-2.958035278E1,-3.337661743E0,2.993376154E1
1.283057782E0,-2.998952150E0,-2.895023346E1,-3.901933193E0,2.936553786E1
1.287970491E0,-2.876647949E0,-2.837220001E1,-4.343006134E0,2.884646493E1
1.292883199E0,-2.756697178E0,-2.766764069E1,-4.760565758E0,2.820923088E1
1.297795907E0,-2.619539738E0,-2.676813698E1,-5.175038338E0,2.738934405E1
1.302708616E0,-2.472204685E0,-2.558865356E1,-5.548965454E0,2.629984800E1
1.307621324E0,-2.352621555E0,-2.416344070E1,-5.689472675E0,2.493545256E1
1.312534032E0,-2.149009705E0,-2.277213287E1,-5.582753181E0,2.354475337E1
1.317446741E0,-1.888158441E0,-2.154511261E1,-5.295482159E0,2.226654780E1
1.322359449E0,-1.558029771E0,-2.040210342E1,-4.805322647E0,2.101819228E1
1.327272157E0,-1.100777030E0,-1.928914642E1,-4.206557274E0,1.977316373E1
1.332184866E0,-5.970709324E-1,-1.809760284E1,-3.492658138E0,1.844121426E1
1.337097574E0,-7.744586468E-2,-1.680042267E1,-2.909833431E0,1.705072815E1
1.342010282E0,3.034482002E-1,-1.542569351E1,-2.333884954E0,1.560420200E1
1.346922939E0,4.820127487E-1,-1.383222961E1,-1.751085758E0,1.395095745E1
1.351835647E0,4.182039499E-1,-1.203701305E1,-1.052494645E0,1.209017464E1
1.356748407E0,2.599974871E-1,-9.914036751E0,-4.582825601E-1,9.928028319E0
1.361661064E0,1.601994038E-2,-7.500174522E0,-1.874889731E-1,7.502534680E0
1.366573772E0,-2.667857409E-1,-4.896715164E0,-4.832042754E-2,4.904215421E0
1.371486480E0,-3.907755613E-1,-2.211764336E0,1.600515842E-2,2.246077287E0
1.376399189E0,-2.509944439E-1,5.353336334E-1,6.295740604E-3,5.912866871E-1
1.381311897E0,1.886307001E-1,3.354034901E0,-3.708862066E-1,3.379746771E0
1.386224605E0,8.286550045E-1,6.206236362E0,-7.654178143E-1,6.307923853E0
1.391137314E0,1.611132860E0,9.068572998E0,-8.488732576E-1,9.249613566E0
1.396050022E0,2.364009142E0,1.207787418E1,-7.313526273E-1,1.232876558E1
1.400962730E0,3.014996529E0,1.539202118E1,-2.981050014E-1,1.568736392E1
1.405875439E0,3.545978546E0,1.889400101E1,6.260515451E-1,1.923406297E1
1.410788147E0,4.045915604E0,2.225942993E1,2.394802094E0,2.275053254E1
1.415700855E0,4.433601379E0,2.544116020E1,5.015626907E0,2.630714669E1
1.420613564E0,4.727368832E0,2.831955719E1,8.160690308E0,2.984865494E1
1.425526272E0,4.823165417E0,3.084076118E1,1.146103477E1,3.325313208E1
1.430438980E0,4.986958981E0,3.291895676E1,1.484083080E1,3.645240366E1
1.435351689E0,5.245628834E0,3.468024445E1,1.793779755E1,3.939543828E1
1.440264397E0,5.712670326E0,3.619827652E1,2.036624718E1,4.192533660E1
1.445177105E0,6.358824253E0,3.746643066E1,2.180519104E1,4.381363291E1
1.450089814E0,7.210747719E0,3.843917847E1,2.210758591E1,4.492561272E1
1.455002522E0,8.143330574E0,3.882928467E1,2.150107765E1,4.512564150E1
1.459915230E0,9.082863808E0,3.853744125E1,2.032825470E1,4.450697398E1
1.464827939E0,9.875683784E0,3.746250153E1,1.888524628E1,4.310012387E1
1.469740647E0,1.056205559E1,3.565161133E1,1.740526009E1,4.105529792E1
1.474653355E0,1.104588509E1,3.332828522E1,1.595843410E1,3.856757436E1
1.479566064E0,1.123067856E1,3.085352325E1,1.448367596E1,3.588655608E1
1.484478772E0,1.107429695E1,2.834833527E1,1.319735336E1,3.317285488E1
1.489391480E0,1.061712933E1,2.574467850E1,1.208433533E1,3.035692781E1
1.494304189E0,9.861940384E0,2.304383850E1,1.116847610E1,2.744104990E1
1.499216897E0,8.821869850E0,2.029712677E1,1.037891006E1,2.444423279E1
1.504129605E0,7.577935219E0,1.757479858E1,9.659661293E0,2.143846319E1
1.509042314E0,6.160146236E0,1.488243675E1,9.000301361E0,1.845100946E1
1.513955022E0,4.722791672E0,1.230188847E1,8.438057899E0,1.564742925E1
1.518867730E0,3.446998358E0,9.816676140E0,7.921989918E0,1.307695883E1
1.523780439E0,2.315851927E0,7.357824326E0,7.334127426E0,1.064378570E1
1.528693147E0,1.358173966E0,4.858892441E0,6.730781078E0,8.411711253E0
1.533605855E0,5.052052736E-1,2.418236732E0,6.045713425E0,6.530984005E0
1.538518564E0,-8.221466839E-2,-2.373218536E-2,5.506053925E0,5.506718831E0
1.543431272E0,-3.572081029E-1,-2.357168198E0,5.123142242E0,5.650701370E0
1.548343980E0,-4.202672243E-1,-4.510948181E0,4.739048004E0,6.556207289E0
1.553256689E0,-4.211426973E-1,-6.567050934E0,4.395297050E0,7.913416159E0
1.558169397E0,-3.136163950E-1,-8.502246857E0,4.162406921E0,9.471651822E0
1.563082105E0,-1.111508012E-1,-1.045804405E1,3.960649252E0,1.118346022E1
1.567994814E0,8.872649074E-2,-1.250151253E1,3.694764137E0,1.303637104E1
1.572907522E0,3.144558072E-1,-1.460879517E1,3.484790564E0,1.502196871E1
1.577820230E0,5.270223022E-1,-1.681816483E1,3.373682022E0,1.716129806E1
1.582732939E0,7.396880388E-1,-1.908429718E1,3.356105089E0,1.939126037E1
1.587645647E0,8.512780070E-1,-2.138592720E1,3.385899544E0,2.166903025E1
1.592558355E0,8.539125919E-1,-2.354678726E1,3.362291098E0,2.380095289E1
1.597471064E0,7.513684630E-1,-2.557495880E1,3.232921839E0,2.578943303E1
1.602383772E0,4.876822829E-1,-2.744751740E1,2.976549625E0,2.761274874E1
1.607296480E0,1.484273672E-1,-2.910583115E1,2.631214142E0,2.922489906E1
1.612209189E0,-2.476093769E-1,-3.042463303E1,2.175040483E0,3.050328517E1
1.617121897E0,-7.483067513E-1,-3.137931442E1,1.519149661E0,3.142497657E1
1.622034605E0,-1.389679909E0,-3.198596001E1,7.206247449E-1,3.202424313E1
1.626947314E0,-2.081225157E0,-3.230122375E1,-1.971888542E-1,3.236880346E1
1.631860022E0,-2.672888756E0,-3.243650818E1,-1.039448261E0,3.256304423E1
1.636772730E0,-3.210556269E0,-3.246234131E1,-1.841279984E0,3.267264279E1
1.641685439E0,-3.620730877E0,-3.229389954E1,-2.558974266E0,3.259684016E1
1.646598147E0,-3.877935171E0,-3.204939270E1,-3.110270023E0,3.243263377E1
1.651510855E0,-4.085855961E0,-3.172247696E1,-3.594253063E0,3.218584189E1
1.656423564E0,-4.254623413E0,-3.133047867E1,-3.944623470E0,3.186315691E1
1.661336272E0,-4.334304333E0,-3.078782654E1,-4.212117195E0,3.137544244E1
1.666248980E0,-4.446905136E0,-3.000895500E1,-4.499343872E0,3.066849264E1
1.671161689E0,-4.558877945E0,-2.894892502E1,-4.617226124E0,2.966719409E1
1.676074397E0,-4.500710011E0,-2.776084518E1,-4.603693485E0,2.849762990E1
1.680987105E0,-4.322944641E0,-2.650644112E1,-4.438904285E0,2.722100553E1
1.685899814E0,-4.003876209E0,-2.524704361E1,-4.055240631E0,2.588221807E1
1.690812522E0,-3.457081318E0,-2.394101334E1,-3.666888237E0,2.446568209E1
1.695725230E0,-2.844819069E0,-2.260177231E1,-3.196391106E0,2.300326114E1
1.700637939E0,-2.324365139E0,-2.112577248E1,-2.697823524E0,2.142379956E1
1.705550647E0,-1.873856664E0,-1.946474838E1,-2.220283508E0,1.968038179E1
1.710463355E0,-1.495507836E0,-1.769473648E1,-1.862777233E0,1.785525642E1
1.715376064E0,-1.292000294E0,-1.576272583E1,-1.525781870E0,1.588901509E1
1.720288772E0,-1.141351104E0,-1.360875416E1,-1.293390036E0,1.371764301E1
1.725201480E0,-9.289914370E-1,-1.122325611E1,-1.106308103E0,1.131584820E1
1.730114189E0,-6.143459082E-1,-8.680321693E0,-9.099601507E-1,8.749481874E0
1.735026897E0,-1.375081539E-1,-6.053924561E0,-7.863051891E-1,6.106323520E0
1.739939605E0,3.845654130E-1,-3.246078968E0,-6.480790973E-1,3.332405399E0
1.744852314E0,1.107960105E0,-2.855944633E-1,-4.208989143E-1,1.219137272E0
1.749765074E0,2.038813353E0,2.760740280E0,-1.534785032E-1,3.435404260E0
1.754677730E0,3.128998518E0,5.974495888E0,3.599922657E-1,6.753874982E0
1.759590491E0,4.453208923E0,9.279549599E0,1.140871882E0,1.035580509E1
1.764503199E0,5.804991245E0,1.271935081E1,1.814318061E0,1.409863676E1
1.769415907E0,6.899098873E0,1.633214951E1,2.711757183E0,1.793572691E1
1.774328616E0,7.728155136E0,2.013901901E1,4.549100876E0,2.204538018E1
1.779241324E0,8.304754257E0,2.406486130E1,7.039801598E0,2.641297596E1
1.784154032E0,8.709794998E0,2.768300247E1,9.769091606E0,3.062097819E1
1.789066741E0,8.919912338E0,3.098706436E1,1.291020966E1,3.473379489E1
1.793979449E0,9.073229790E0,3.387184143E1,1.628599548E1,3.866340375E1
1.798892157E0,9.343358040E0,3.645353699E1,1.958192635E1,4.242181677E1
1.803804866E0,9.646084785E0,3.874276733E1,2.231632423E1,4.573912220E1
1.808717574E0,9.836507797E0,4.066695786E1,2.432466888E1,4.839677534E1
1.813630282E0,1.012057114E1,4.198549652E1,2.529197884E1,5.004889681E1
1.818542991E0,1.052877426E1,4.252722549E1,2.512975311E1,5.050667765E1
1.823455699E0,1.104425621E1,4.222123718E1,2.406182861E1,4.983553010E1
1.828368407E0,1.155949593E1,4.110783386E1,2.249839401E1,4.826648614E1
1.833281116E0,1.195051289E1,3.947801208E1,2.073911476E1,4.616751106E1
1.838193824E0,1.219002533E1,3.733991241E1,1.880903053E1,4.355049261E1
1.843106532E0,1.222945690E1,3.494730759E1,1.702737427E1,4.075298024E1
1.848019241E0,1.201414871E1,3.226417542E1,1.559400940E1,3.779536894E1
1.852931949E0,1.154083252E1,2.939277077E1,1.438221931E1,3.469832879E1
1.857844657E0,1.082163906E1,2.640160751E1,1.334740353E1,3.150088780E1
1.862757366E0,9.781264305E0,2.339502335E1,1.242357063E1,2.823730433E1
1.867670074E0,8.505817413E0,2.042930984E1,1.162396049E1,2.499644151E1
1.872582782E0,7.143003941E0,1.745794296E1,1.085658932E1,2.176391071E1
1.877495491E0,5.760770798E0,1.459200668E1,1.013956070E1,1.867950295E1
1.882408199E0,4.484537601E0,1.188487244E1,9.464359283E0,1.584093959E1
1.887320907E0,3.363865137E0,9.339435577E0,8.807888031E0,1.327100362E1
1.892233668E0,2.563932419E0,6.853334427E0,8.187387466E0,1.098067647E1
1.897146376E0,1.988019705E0,4.508180618E0,7.674521923E0,9.119989122E0
1.902059084E0,1.557356358E0,2.306343079E0,7.214261055E0,7.732408408E0
1.906971793E0,1.284597278E0,1.975030899E-1,6.835191727E0,6.957660783E0
1.911884501E0,1.254147530E0,-1.820960045E0,6.747694969E0,7.100716084E0
1.916797209E0,1.414623618E0,-3.759000778E0,6.711006641E0,7.821052165E0
1.921709918E0,1.638144970E0,-5.614668369E0,6.755377293E0,8.935498990E0
1.926622626E0,1.768174410E0,-7.393190384E0,6.949709892E0,1.029971710E1
1.931535334E0,1.808306336E0,-9.121230125E0,7.258175373E0,1.179609768E1
1.936448043E0,1.811674476E0,-1.083486843E1,7.526031971E0,1.331606907E1
1.941360751E0,1.847349405E0,-1.268702316E1,7.656529427E0,1.493304053E1
1.946273459E0,1.840798616E0,-1.467729950E1,7.655727386E0,1.665598457E1
1.951186168E0,1.765147209E0,-1.684586334E1,7.512507439E0,1.852934495E1
1.956098876E0,1.643549562E0,-1.914208221E1,7.269515038E0,2.054182114E1
1.961011584E0,1.340817094E0,-2.135563087E1,6.866096020E0,2.247229483E1
1.965924293E0,9.627945423E-1,-2.339392471E1,6.339560986E0,2.425680771E1
1.970837001E0,5.745605230E-1,-2.538211060E1,5.715012074E0,2.602389327E1
1.975749709E0,2.217897177E-1,-2.742374229E1,5.022200584E0,2.788069818E1
1.980662418E0,-1.908921003E-1,-2.946947098E1,4.341084003E0,2.978810450E1
1.985575126E0,-6.557234526E-1,-3.149176598E1,3.555418491E0,3.169861666E1
1.990487887E0,-1.181243896E0,-3.317420959E1,2.654931307E0,3.330123391E1
1.995400595E0,-1.694188476E0,-3.444720459E1,1.621934891E0,3.452695833E1
2.000313303E0,-2.209392786E0,-3.528437424E1,5.387120247E-1,3.535758324E1
2.005226012E0,-2.597734451E0,-3.581702423E1,-6.370801926E-1,3.591675542E1
2.010138720E0,-2.873039722E0,-3.608766937E1,-1.778227091E0,3.624550082E1
2.015051428E0,-3.075205803E0,-3.627003860E1,-2.796159029E0,3.650741153E1
2.019964137E0,-3.299514294E0,-3.624839783E1,-3.628265619E0,3.657864747E1
2.024876845E0,-3.584261656E0,-3.598114777E1,-4.364068031E0,3.642162841E1
2.029789553E0,-3.905873775E0,-3.551721191E1,-5.156385422E0,3.610147508E1
2.034702262E0,-4.273897171E0,-3.494561386E1,-5.868320942E0,3.569172615E1
2.039614970E0,-4.600095749E0,-3.418067551E1,-6.458920002E0,3.508841841E1
2.044527678E0,-4.889642239E0,-3.322996521E1,-6.906694412E0,3.429054705E1
2.049440387E0,-5.083414078E0,-3.209130096E1,-7.063550472E0,3.325036002E1
2.054353095E0,-5.218126297E0,-3.086494255E1,-7.010644436E0,3.207838300E1
2.059265803E0,-5.275617599E0,-2.969120026E1,-6.787631989E0,3.091070141E1
2.064178512E0,-5.201740265E0,-2.851153183E1,-6.407394886E0,2.968198542E1
2.069091272E0,-4.879896164E0,-2.738433456E1,-5.973511696E0,2.844992106E1
2.074003980E0,-4.303053856E0,-2.616950226E1,-5.591909409E0,2.710403239E1
2.078916689E0,-3.542729616E0,-2.477978897E1,-5.215696335E0,2.556936375E1
2.083829397E0,-2.727694750E0,-2.312823868E1,-4.867615223E0,2.379179314E1
2.088742105E0,-1.860303640E0,-2.127397156E1,-4.575441360E0,2.183980904E1
2.093654814E0,-9.329144955E-1,-1.923289680E1,-4.352686405E0,1.974134058E1
2.098567522E0,8.158612251E-2,-1.701368332E1,-4.222631931E0,1.753005125E1
2.103480230E0,1.139134169E0,-1.475151634E1,-3.936868906E0,1.531025140E1
2.108392939E0,2.205790520E0,-1.238057518E1,-3.513046265E0,1.305701527E1
2.113305647E0,3.238430023E0,-9.672728539E0,-2.794654369E0,1.057635095E1
2.118218355E0,4.102829933E0,-6.390902996E0,-1.842259884E0,7.814779334E0
2.123131064E0,4.827460289E0,-2.499311447E0,-6.627585888E-1,5.476329017E0
2.128043772E0,5.629752636E0,1.839292526E0,7.714031339E-1,5.972618733E0
2.132956480E0,6.712921619E0,6.280687332E0,2.667468548E0,9.572133434E0
2.137869241E0,7.978866100E0,1.051914120E1,5.349928856E0,1.424557386E1
2.142781949E0,9.240761757E0,1.416530609E1,8.708680153E0,1.902337206E1
2.147694657E0,1.014886856E1,1.734317017E1,1.233713150E1,2.357943804E1
2.152607366E0,1.075188351E1,2.015846634E1,1.600275612E1,2.789363668E1
2.157520074E0,1.072265530E1,2.275150490E1,1.955729485E1,3.186054132E1
2.162432782E0,1.030817509E1,2.508973312E1,2.235042763E1,3.514676083E1
2.167345491E0,9.663637161E0,2.720772934E1,2.416831398E1,3.765307185E1
2.172258199E0,8.636537552E0,2.896429443E1,2.487338638E1,3.914339642E1
2.177170907E0,7.441703320E0,3.015806007E1,2.443523598E1,3.952174456E1
2.182083616E0,6.178953171E0,3.070923233E1,2.314352989E1,3.894687906E1
2.186996324E0,4.979748249E0,3.056280518E1,2.139700699E1,3.763927285E1
2.191909032E0,3.957418203E0,2.968778610E1,1.948706436E1,3.573193921E1
2.196821793E0,3.279588699E0,2.833033752E1,1.753303146E1,3.347791688E1
2.201734501E0,2.804364443E0,2.681248093E1,1.569494247E1,3.119462795E1
2.206647209E0,2.505407095E0,2.515671730E1,1.402554417E1,2.891112899E1
2.211559918E0,2.231973410E0,2.340693855E1,1.253711128E1,2.664668154E1
2.216472626E0,1.909110785E0,2.155672073E1,1.119435978E1,2.436494621E1
2.221385334E0,1.506160140E0,1.958276749E1,1.005341244E1,2.206409759E1
2.226298043E0,1.060999155E0,1.755027390E1,9.019769669E0,1.976092300E1
2.231210751E0,6.275737286E-1,1.540481281E1,8.094938278E0,1.741350431E1
2.236123459E0,2.306498885E-1,1.328551006E1,7.132503510E0,1.508080181E1
2.241036168E0,-1.173466742E-1,1.116417027E1,6.184259892E0,1.276313200E1
2.245948876E0,-3.016225100E-1,9.182321548E0,5.313692093E0,1.061326193E1
2.250861584E0,-3.454459012E-1,7.354505539E0,4.409796715E0,8.582213681E0
2.255774345E0,-3.148448467E-1,5.735777855E0,3.579262733E0,6.768263928E0
2.260687053E0,-2.779237628E-1,4.359419823E0,2.940792799E0,5.265932500E0
2.265599762E0,-3.528322577E-1,3.162864685E0,2.513013840E0,4.055051439E0
2.270512470E0,-3.678489327E-1,2.069279671E0,2.156975031E0,3.011606295E0
2.275425178E0,-2.630879879E-1,1.009008408E0,1.985214233E0,2.242406923E0
2.280337887E0,-1.662298441E-1,6.055736542E-2,1.725567579E0,1.734613221E0
2.285250595E0,-3.760847449E-2,-8.361501694E-1,1.378489733E0,1.612698188E0
2.290163303E0,2.857157588E-2,-1.669123650E0,9.174468517E-1,1.904861890E0
2.295076012E0,7.365465164E-3,-2.433302879E0,3.462877274E-1,2.457830821E0
2.299988720E0,-8.139783144E-2,-2.989732265E0,-2.096869946E-1,2.998181659E0
2.304901480E0,-1.469631493E-1,-3.381365299E0,-7.209091187E-1,3.460482540E0
2.309814189E0,-1.800896525E-1,-3.663041115E0,-1.215212703E0,3.863553339E0
2.314726897E0,-4.497945309E-2,-3.908712387E0,-1.636492252E0,4.237707230E0
2.319639605E0,5.005294085E-2,-4.099055290E0,-2.038611889E0,4.578285487E0
2.324552314E0,2.374750376E-2,-4.212557316E0,-2.341120481E0,4.819444801E0
2.329465022E0,5.051523447E-2,-4.261351109E0,-2.425011635E0,4.903299551E0
2.334377730E0,1.086541414E-1,-4.310236454E0,-2.433887005E0,4.951136230E0
2.339290439E0,1.598848701E-1,-4.254381180E0,-2.412660122E0,4.893490703E0
2.344203147E0,2.067052722E-1,-4.108639717E0,-2.315264702E0,4.720603567E0
2.349115855E0,2.348918915E-1,-3.981030941E0,-2.133812904E0,4.522934784E0
2.354028564E0,2.757803798E-1,-3.898046017E0,-1.908422470E0,4.348895709E0
2.358941324E0,4.012126327E-1,-3.862166882E0,-1.619571090E0,4.207174243E0
2.363854032E0,5.946938396E-1,-3.754040241E0,-1.283598185E0,4.011745654E0
2.368766741E0,8.133177161E-1,-3.590738773E0,-9.525970221E-1,3.802937251E0
2.373679449E0,9.472293258E-1,-3.329593658E0,-6.449832916E-1,3.521283966E0
2.378592157E0,9.225258827E-1,-3.071397305E0,-3.240630627E-1,3.223282841E0
2.383504866E0,7.318438888E-1,-2.821127892E0,6.169795990E-3,2.914514732E0
2.388417574E0,4.513088465E-1,-2.679287434E0,2.747797966E-1,2.730890837E0
2.393330282E0,1.688225865E-1,-2.636164665E0,3.771646023E-1,2.668354989E0
2.398242991E0,-1.375281811E-2,-2.600712299E0,4.068706036E-1,2.632382437E0
2.403155751E0,-1.216038167E-1,-2.513091564E0,4.260981083E-1,2.551857421E0
2.408068459E0,-3.566127419E-1,-2.318407536E0,4.492726326E-1,2.388311547E0
2.412981168E0,-6.070874333E-1,-2.093255997E0,4.309499264E-1,2.221709625E0
2.417893876E0,-7.464817762E-1,-1.866359711E0,2.852611542E-1,2.030248147E0
2.422806584E0,-7.147496939E-1,-1.759471416E0,1.004977226E-1,1.901764071E0
2.427719293E0,-5.445851088E-1,-1.707708836E0,-7.848715782E-2,1.794157920E0
2.432632001E0,-2.924551964E-1,-1.698824883E0,-2.286927700E-1,1.738918171E0
2.437544709E0,1.621174812E-2,-1.644153595E0,-3.558185101E-1,1.682293279E0
2.442457418E0,3.204937577E-1,-1.534135342E0,-5.299098492E-1,1.654415892E0
2.447370178E0,5.550684333E-1,-1.352138042E0,-7.753140926E-1,1.654536247E0
2.452282887E0,7.811748981E-1,-1.165218353E0,-9.609019756E-1,1.700382498E0
2.457195595E0,8.706166744E-1,-1.002042770E0,-1.087162256E0,1.715804441E0
2.462108303E0,9.986316562E-1,-8.530206680E-1,-1.077947259E0,1.699082028E0
2.467021012E0,1.114949226E0,-7.181758881E-1,-1.033711910E0,1.681501917E0
2.471933720E0,1.238788605E0,-6.191005707E-1,-1.047301769E0,1.736295977E0
2.476846428E0,1.669242144E0,-8.785190582E-1,-9.218604565E-1,2.099521796E0
2.481759137E0,1.827255964E0,-1.173519135E0,-6.227673292E-1,2.259170349E0
2.486671845E0,1.578530073E0,-7.635164261E-1,-4.337217808E-1,1.806330288E0
2.491584605E0,1.194887161E0,-2.248954773E-2,-5.194845200E-1,1.303121358E0
2.496497314E0,8.978111744E-1,3.128633499E-1,-3.769094944E-1,1.022745886E0
2.501410022E0,6.857975125E-1,3.005714417E-1,-2.948808670E-2,7.493536995E-1
2.506322730E0,4.875790477E-1,2.903194427E-1,1.572251320E-2,5.676846871E-1
2.511235439E0,1.791679859E-1,4.044046402E-1,-2.872574329E-1,5.274098150E-1
2.516148147E0,-1.406902373E-1,5.402336121E-1,-6.187132597E-1,8.333379844E-1
2.521060855E0,-3.460271060E-1,5.712509155E-1,-7.185953856E-1,9.810411280E-1
2.525973564E0,-4.583400488E-1,5.548763275E-1,-5.440256596E-1,9.021791715E-1
2.530886324E0,-4.528220594E-1,5.075950623E-1,-2.953202724E-1,7.415622887E-1
2.535799032E0,-2.756507397E-1,4.745483398E-1,-8.407664299E-2,5.552011699E-1
2.540711741E0,3.383320570E-2,3.647480011E-1,2.792429924E-2,3.673765869E-1
2.545624449E0,2.877300084E-1,2.882547379E-1,5.981588364E-2,4.116519058E-1
2.550537157E0,3.577301800E-1,2.403402328E-1,-2.224326134E-2,4.315426652E-1
2.555449866E0,3.613619804E-1,2.378902435E-1,-1.566984653E-1,4.601398243E-1
2.560362574E0,2.888258696E-1,2.619476318E-1,-3.371260166E-1,5.154521276E-1
2.565275334E0,2.161784768E-1,2.935276031E-1,-4.923231602E-1,6.125958551E-1
2.570188043E0,1.384090185E-1,2.299108505E-1,-5.507904291E-1,6.126876467E-1
2.575100751E0,1.199231446E-1,1.907005310E-1,-5.220521688E-1,5.685830811E-1
2.580013459E0,1.868610084E-1,1.399250031E-1,-4.919929504E-1,5.445668978E-1
2.584926168E0,1.985617876E-1,1.491556168E-1,-4.363172054E-1,5.020427126E-1
2.589838876E0,1.579457819E-1,2.014255524E-1,-3.642377853E-1,4.451834312E-1
2.594751584E0,1.129885018E-1,2.798538208E-1,-2.922685146E-1,4.201255136E-1
2.599664293E0,2.506974339E-2,3.389101028E-1,-1.985282898E-1,3.935759542E-1
2.604577001E0,-6.822431087E-2,3.045396805E-1,-1.903953552E-1,3.655808596E-1
2.609489762E0,-1.675405204E-1,2.007913589E-1,-1.599707603E-1,3.065577270E-1
2.614402470E0,-2.208934277E-1,1.448497772E-1,-5.927920341E-2,2.707201292E-1
2.619315178E0,-2.379202992E-1,1.484870911E-1,-2.832412720E-3,2.804683717E-1
2.624227887E0,-2.401548028E-1,1.780824661E-1,4.549670219E-2,3.024196488E-1
2.629140595E0,-1.627978981E-1,2.192077637E-1,1.408064365E-1,3.072159694E-1
2.634053303E0,-2.453452349E-2,2.359924316E-1,2.351696491E-1,3.340645664E-1
2.638966012E0,1.130212247E-1,2.643594742E-1,3.259730339E-1,4.346471531E-1
2.643878772E0,1.527597308E-1,2.540950775E-1,3.820645809E-1,4.836043711E-1
2.648791480E0,1.289344728E-1,2.554721832E-1,3.889963627E-1,4.829164574E-1
2.653704189E0,1.315006614E-2,2.183704376E-1,3.489067554E-1,4.118185235E-1
2.658616897E0,-7.990145683E-2,1.381778717E-1,2.496068478E-1,2.962784931E-1
2.663529605E0,-9.545695782E-2,1.506900787E-2,1.601893902E-1,1.870821919E-1
2.668442314E0,-8.183285594E-2,-1.268892288E-1,1.568095684E-1,2.176849408E-1
2.673355022E0,-5.158072710E-2,-2.445030212E-1,6.440043449E-2,2.580498300E-1
2.678267782E0,-8.633020520E-2,-2.684049606E-1,-5.751156807E-2,2.877528587E-1
2.683180491E0,-1.357916892E-1,-2.320508957E-1,-2.119710445E-1,3.423722021E-1
2.688093199E0,-1.374788880E-1,-1.903944016E-1,-3.636361361E-1,4.328760934E-1
2.693005907E0,-1.391403973E-1,-2.267971039E-1,-6.284209490E-1,6.824293851E-1
2.697918616E0,-1.930917203E-1,-4.528865814E-1,-1.493447542E0,1.572506353E0
2.702831324E0,-2.225936949E-1,-5.314435959E-1,-1.506842852E0,1.613243822E0
2.707744032E0,-2.845431268E-1,-5.781850815E-1,-8.584921360E-1,1.073439112E0
2.712656741E0,-2.442972362E-1,-5.677118301E-1,-2.394821644E-1,6.628194089E-1
2.717569501E0,-2.166005373E-1,-4.934177399E-1,1.823482513E-1,5.688828909E-1
2.722482209E0,-2.068098485E-1,-3.077220917E-1,4.460811615E-1,5.800444826E-1
2.727394918E0,-2.136354446E-1,-5.370712280E-2,5.971400738E-1,6.364753145E-1
2.732307626E0,-1.617209017E-1,1.778841019E-1,5.754597187E-1,6.236587942E-1
2.737220334E0,-5.190581083E-2,3.514537811E-1,4.715304375E-1,5.903854054E-1
2.742133043E0,4.355347157E-2,4.291000366E-1,2.966589928E-1,5.234790390E-1
2.747045751E0,1.963136196E-1,4.303159714E-1,1.171178818E-1,4.872652981E-1
2.751958512E0,3.708502054E-1,3.959999084E-1,-2.706909180E-2,5.432113199E-1
2.756871220E0,5.225982666E-1,2.545413971E-1,-9.798359871E-2,5.894922024E-1
2.761783928E0,6.598641872E-1,1.947917938E-1,-1.623995304E-1,7.069216336E-1
2.766696637E0,7.334733009E-1,1.853847504E-1,-1.601994038E-1,7.733139323E-1
2.771609345E0,7.751666903E-1,2.356691360E-1,-1.676628590E-1,8.273658041E-1
2.776522053E0,7.207227945E-1,2.235517502E-1,-1.437919140E-1,7.681750101E-1
2.781434814E0,6.441754699E-1,1.730451584E-1,-7.905244827E-2,6.716814367E-1
