"Time (s)","Linear Acceleration x (m/s^2)","Linear Acceleration y (m/s^2)","Linear Acceleration z (m/s^2)","Absolute acceleration (m/s^2)"
4.728318400E-2,0.000000000E0,0.000000000E0,0.000000000E0,0.000000000E0
5.219542300E-2,-4.946170747E-2,-1.154708862E-2,3.356838226E-2,6.088211601E-2
5.710771500E-2,-9.739351273E-2,-5.176639557E-2,4.945814610E-2,1.208774762E-1
6.202000700E-2,-1.206131279E-1,-4.531955719E-2,1.036927700E-1,1.653891757E-1
6.693229800E-2,-1.647914946E-1,-4.135036469E-2,1.506881714E-1,2.270969272E-1
7.184459000E-2,-2.229800522E-1,-9.792995453E-2,3.033797741E-1,3.890368453E-1
7.675688200E-2,-1.236068010E-1,-1.906719208E-1,5.453217030E-1,5.907708374E-1
8.166917300E-2,1.727254689E-1,-2.613897324E-1,3.106806278E-1,4.412268490E-1
8.658146500E-2,6.672475487E-2,-2.854824066E-2,3.334569931E-2,7.986945987E-2
9.149375700E-2,-2.010881901E-3,1.524753571E-1,-3.419756889E-2,1.562762038E-1
9.640599600E-2,-1.495458186E-3,1.530675888E-1,-4.326677322E-2,1.590721120E-1
1.013182880E-1,-7.711157203E-3,9.120655060E-2,-1.373624802E-1,1.650652834E-1
1.062305800E-1,-4.895560816E-2,4.803657532E-2,-2.451860905E-1,2.545984743E-1
1.111428710E-1,-1.681065559E-1,-1.606435776E-1,-2.847720385E-1,3.676428798E-1
1.160551630E-1,-2.899181545E-1,-2.310266495E-1,-1.893669367E-1,4.162759731E-1
1.209674550E-1,-2.985400856E-1,-4.439067841E-2,-1.322710514E-1,3.295335280E-1
1.258797460E-1,-2.316651493E-1,-6.263065338E-2,-9.054708481E-2,2.564958376E-1
1.307920380E-1,-7.665598392E-2,-1.636667252E-1,-1.037402153E-1,2.083865856E-1
1.357043300E-1,1.719849184E-3,-1.100931168E-1,-1.850398779E-1,2.153211756E-1
1.406166210E-1,-1.060777158E-1,-7.526683807E-2,-2.384411097E-1,2.716095386E-1
1.455289130E-1,-2.463477105E-1,-5.573844910E-2,-2.635169029E-1,3.650138727E-1
1.504411520E-1,-3.065421879E-1,1.788234711E-2,-3.486020565E-1,4.645549323E-1
1.553534440E-1,-2.305420935E-1,-3.014564514E-3,-2.875488997E-1,3.685690087E-1
1.602657360E-1,-1.568344831E-1,2.530479431E-2,-2.785433531E-1,3.206614839E-1
1.651780270E-1,-1.145100445E-1,3.656578064E-2,-2.042798996E-1,2.370229609E-1
1.700903190E-1,-4.682480171E-2,6.819248199E-2,-1.241021156E-1,1.491446002E-1
1.750026110E-1,1.559254155E-2,1.240501404E-1,-5.835032463E-2,1.379721895E-1
1.799149020E-1,9.180386364E-2,1.271877289E-1,3.316521645E-2,1.603265397E-1
1.848271940E-1,1.770179868E-1,1.718397141E-1,5.520629883E-2,2.528082087E-1
1.897394860E-1,2.390520126E-1,2.104406357E-1,5.871462822E-2,3.238495537E-1
1.946517770E-1,2.766402960E-1,3.081226349E-1,7.444095612E-2,4.207265946E-1
1.995640690E-1,2.834569216E-1,3.635320663E-1,3.461837769E-2,4.622789436E-1
2.044763610E-1,3.094384968E-1,3.641424179E-1,2.891039848E-2,4.787355167E-1
2.093886000E-1,3.727493882E-1,4.579448700E-1,1.444935799E-2,5.906474366E-1
2.143008920E-1,3.583526909E-1,5.657014847E-1,1.455616951E-2,6.698109457E-1
2.192131840E-1,3.497918546E-1,6.872596741E-1,-3.204059601E-2,7.718204461E-1
2.241254750E-1,2.907206714E-1,8.202276230E-1,-1.574105024E-1,8.843471765E-1
2.290377670E-1,2.990190983E-1,8.923435211E-1,-3.229928017E-1,9.949943370E-1
2.339500590E-1,3.404619396E-1,9.659833908E-1,-4.234563112E-1,1.108311099E0
2.388623500E-1,4.028815031E-1,1.071610451E0,-4.610031843E-1,1.234174380E0
2.437746420E-1,4.652863741E-1,1.178254128E0,-5.193338394E-1,1.369117174E0
2.486869340E-1,5.655559897E-1,1.295466423E0,-6.477423906E-1,1.554881679E0
2.535992250E-1,5.905590057E-1,1.430194855E0,-7.585912943E-1,1.723275374E0
2.585115170E-1,6.096454859E-1,1.579812050E0,-7.705150843E-1,1.860421250E0
2.634238090E-1,6.722111702E-1,1.732154846E0,-6.096743345E-1,1.955487423E0
2.683361000E-1,6.884524822E-1,1.922111511E0,-3.016732931E-1,2.063852286E0
2.732483400E-1,6.263812780E-1,2.111157417E0,1.383678913E-1,2.206464325E0
2.781606320E-1,6.023191810E-1,2.343655586E0,5.268349648E-1,2.476502571E0
2.830729230E-1,5.780288577E-1,2.562375069E0,8.567073345E-1,2.762938800E0
2.879852150E-1,5.158686042E-1,2.715987206E0,1.075995445E0,2.966559137E0
2.928975070E-1,3.130689859E-1,2.880930901E0,1.163627148E0,3.122787726E0
2.978097980E-1,4.705059528E-2,3.092387199E0,1.152288437E0,3.300430425E0
3.027220900E-1,-2.088353336E-1,3.352169037E0,1.047562599E0,3.518243432E0
3.076343820E-1,-4.529225826E-1,3.610482216E0,8.169188499E-1,3.729353443E0
3.125466730E-1,-7.331843376E-1,3.825456619E0,5.812056065E-1,3.938207406E0
3.174589650E-1,-1.064098477E0,4.016975403E0,4.782636166E-1,4.182957452E0
3.223712570E-1,-1.406242013E0,4.293775558E0,5.078396797E-1,4.546639010E0
3.272835480E-1,-1.760911942E0,4.484990120E0,7.175269127E-1,4.871426086E0
3.321957880E-1,-1.952388763E0,4.646003723E0,1.084227800E0,5.154873655E0
3.371080800E-1,-2.016820908E0,4.772288322E0,1.505746365E0,5.395328954E0
3.420203710E-1,-1.991844535E0,4.852218628E0,1.961945772E0,5.600062632E0
3.469326630E-1,-1.850514174E0,4.982660294E0,2.355370760E0,5.813697423E0
3.518449550E-1,-1.573150873E0,5.070436478E0,2.734050035E0,5.971529062E0
3.567572460E-1,-1.267614484E0,5.169908524E0,3.076955557E0,6.148370200E0
3.616695380E-1,-9.342226386E-1,5.325292587E0,3.391265154E0,6.382177718E0
3.665818300E-1,-5.993893147E-1,5.497817993E0,3.553848982E0,6.573820261E0
3.714941210E-1,-2.746309042E-1,5.654305458E0,3.444729090E0,6.626669665E0
3.764064130E-1,1.067392901E-1,5.790599823E0,3.107567072E0,6.572626012E0
3.813187050E-1,4.596204162E-1,5.954688072E0,2.738103628E0,6.570142498E0
3.862309960E-1,8.489758372E-1,6.144412041E0,2.408749104E0,6.654068796E0
3.911432880E-1,1.280561328E0,6.187707901E0,2.068055868E0,6.648640572E0
3.960555800E-1,1.718036652E0,6.148574829E0,1.745214701E0,6.618337912E0
4.009678710E-1,2.177776814E0,6.012091637E0,1.471266747E0,6.561446756E0
4.058801630E-1,2.595550537E0,5.893322945E0,1.189237118E0,6.548467213E0
4.107924020E-1,2.909903049E0,5.674220085E0,8.829774857E-1,6.437698236E0
4.157046940E-1,3.111818790E0,5.422426224E0,6.167840958E-1,6.282240441E0
4.206169860E-1,3.253464222E0,5.110088348E0,3.288340569E-1,6.066808404E0
4.255292770E-1,3.291284561E0,4.742638588E0,9.082746506E-2,5.773510584E0
4.304415690E-1,3.236375332E0,4.313470840E0,-8.255171776E-2,5.393233795E0
4.353538610E-1,3.094428778E0,3.827799797E0,-1.148011684E-1,4.923486575E0
4.402661520E-1,2.894477367E0,3.307262421E0,-1.968884468E-2,4.395039431E0
4.451784440E-1,2.686197281E0,2.728270531E0,1.755315065E-1,3.832744086E0
4.500907360E-1,2.419384718E0,2.124243736E0,4.115149975E-1,3.245793964E0
4.550030270E-1,2.179109097E0,1.480943680E0,7.716983557E-1,2.745401426E0
4.599153190E-1,2.007146120E0,7.771606445E-1,1.166531563E0,2.448144216E0
4.648276110E-1,1.874079943E0,7.948970795E-2,1.552676678E0,2.435015218E0
4.697399020E-1,1.698869228E0,-6.005916595E-1,1.932112932E0,2.641955219E0
4.746521940E-1,1.443732858E0,-1.251618385E0,2.199696541E0,2.913688044E0
4.795644860E-1,1.196510315E0,-1.928411484E0,2.333513260E0,3.255102444E0
4.844767770E-1,9.442949891E-1,-2.633033752E0,2.401241064E0,3.686532031E0
4.893890690E-1,7.245250344E-1,-3.298857689E0,2.350712061E0,4.115002524E0
4.943013090E-1,5.432404876E-1,-3.959404945E0,2.250638962E0,4.586651664E0
4.992136000E-1,4.161156118E-1,-4.583934307E0,2.126212120E0,5.070146340E0
5.041258920E-1,3.545095325E-1,-5.194180489E0,1.971528649E0,5.567056060E0
5.090381840E-1,4.005210102E-1,-5.825891018E0,1.745058656E0,6.094805407E0
5.139504750E-1,4.678328931E-1,-6.481312275E0,1.505307674E0,6.670249442E0
5.188627670E-1,4.731301069E-1,-7.162703514E0,1.317705631E0,7.298254713E0
5.237750590E-1,3.595685065E-1,-7.789388657E0,1.176292181E0,7.885906952E0
5.286873500E-1,1.394349039E-1,-8.447396278E0,1.097055793E0,8.519476356E0
5.335996420E-1,-1.420647800E-1,-9.115242958E0,1.084386706E0,9.180617142E0
5.385119340E-1,-4.215020239E-1,-9.800108910E0,1.200150847E0,9.882315551E0
5.434242250E-1,-7.121361494E-1,-1.050673962E1,1.287830710E0,1.060929890E1
5.483365170E-1,-9.533557892E-1,-1.120666218E1,1.343844056E0,1.132713915E1
5.532488090E-1,-1.041612983E0,-1.188114262E1,1.272027135E0,1.199435536E1
5.581611000E-1,-1.047024846E0,-1.249736023E1,1.150245786E0,1.259378176E1
5.630733920E-1,-1.043863773E0,-1.302044392E1,1.007329226E0,1.310100468E1
5.679856840E-1,-1.074952126E0,-1.338501644E1,7.788683176E-1,1.345068114E1
5.728979750E-1,-1.142634392E0,-1.372556305E1,4.408250749E-1,1.378009511E1
5.778102670E-1,-1.189762592E0,-1.409233284E1,2.120727301E-2,1.414248315E1
5.827225590E-1,-1.268748522E0,-1.449483681E1,-3.812488914E-1,1.455525223E1
5.876348500E-1,-1.393980742E0,-1.487612534E1,-7.135423422E-1,1.495832310E1
5.925471420E-1,-1.617969036E0,-1.519639015E1,-9.867888093E-1,1.531410623E1
5.974594340E-1,-1.803051949E0,-1.552766228E1,-1.180424929E0,1.567650137E1
6.023716730E-1,-1.952363133E0,-1.583686066E1,-1.309219480E0,1.601036954E1
6.072839650E-1,-2.052308321E0,-1.616473198E1,-1.392507553E0,1.635388659E1
6.121962570E-1,-2.112747431E0,-1.645902634E1,-1.399307847E0,1.665296707E1
6.171085480E-1,-2.157833815E0,-1.667029953E1,-1.415267706E0,1.686885046E1
6.220208400E-1,-2.313591480E0,-1.673526001E1,-1.468460560E0,1.695812518E1
6.269331320E-1,-2.455556870E0,-1.665282822E1,-1.480268121E0,1.689785906E1
6.318454230E-1,-2.512484074E0,-1.653582001E1,-1.412947655E0,1.678518217E1
6.367577150E-1,-2.434478045E0,-1.640103149E1,-1.309841156E0,1.663238411E1
6.416700070E-1,-2.212342262E0,-1.622232437E1,-1.159187794E0,1.641346955E1
6.465822980E-1,-1.910820365E0,-1.601888084E1,-1.029990911E0,1.616529181E1
6.514945900E-1,-1.646820545E0,-1.585254860E1,-9.839179516E-1,1.596819995E1
6.564068820E-1,-1.508048177E0,-1.566359997E1,-1.042039871E0,1.577049208E1
6.613191730E-1,-1.386587977E0,-1.540696239E1,-1.111223221E0,1.550909196E1
6.662314650E-1,-1.218006968E0,-1.516372204E1,-1.086932898E0,1.525134191E1
6.711437570E-1,-1.071346045E0,-1.495488548E1,-9.886870384E-1,1.502577400E1
6.760560480E-1,-9.938012362E-1,-1.466110992E1,-8.831444979E-1,1.472126792E1
6.809683400E-1,-9.060791731E-1,-1.426131248E1,-7.556305528E-1,1.431003112E1
6.858806320E-1,-7.126044035E-1,-1.378677177E1,-5.915345550E-1,1.381784332E1
6.907929230E-1,-5.230437517E-1,-1.327804279E1,-3.977213204E-1,1.329429116E1
6.957052150E-1,-4.227459431E-1,-1.268512535E1,-1.881135404E-1,1.269356160E1
7.006174550E-1,-2.469872832E-1,-1.195839500E1,-1.459723711E-2,1.196095426E1
7.055297460E-1,-6.770271063E-2,-1.114128304E1,2.331844419E-1,1.114392867E1
7.104420900E-1,8.875948191E-2,-1.029355049E1,5.220794082E-1,1.030716386E1
7.153543300E-1,2.912894189E-1,-9.293921471E0,8.074031472E-1,9.333473398E0
7.202666210E-1,5.940814614E-1,-8.121818542E0,1.125669956E0,8.220948976E0
7.251789130E-1,9.748577476E-1,-6.911331177E0,1.456278920E0,7.130048706E0
7.300912050E-1,1.409342766E0,-5.660132408E0,1.823991299E0,6.111488376E0
7.350034960E-1,1.761514425E0,-4.299396515E0,2.177076340E0,5.131023763E0
7.399157880E-1,2.114930153E0,-2.775056839E0,2.549484253E0,4.321312297E0
7.448280800E-1,2.495677471E0,-1.118985176E0,2.917735577E0,3.999214268E0
7.497403710E-1,2.806028366E0,7.394614220E-1,3.153445005E0,4.285418741E0
7.546526630E-1,3.153899670E0,2.730247021E0,3.285604477E0,5.310040367E0
7.595649550E-1,3.723050594E0,4.771970749E0,3.333245039E0,6.909655060E0
7.644772460E-1,4.439406395E0,6.931149483E0,3.484400749E0,8.938132404E0
7.693895380E-1,5.238868237E0,9.173864365E0,3.781218052E0,1.122065674E1
7.743018300E-1,5.950862408E0,1.155432892E1,4.070684433E0,1.361931540E1
7.792141210E-1,6.813094139E0,1.388845825E1,4.279253483E0,1.605053067E1
7.841264130E-1,7.881415367E0,1.610737419E1,4.417066097E0,1.846820740E1
7.890387050E-1,8.940396309E0,1.826372528E1,4.541969299E0,2.083563852E1
7.939509960E-1,9.785434723E0,2.041200256E1,4.730594635E0,2.312537799E1
7.988632880E-1,1.034578133E1,2.240183067E1,4.937475681E0,2.516457579E1
8.037755800E-1,1.060064220E1,2.412213707E1,4.907147884E0,2.680170167E1
8.086878710E-1,1.057190132E1,2.553418732E1,4.603833199E0,2.801705016E1
8.136001630E-1,1.014425373E1,2.661395645E1,4.418100357E0,2.882235543E1
8.185124550E-1,9.475694656E0,2.745172501E1,4.448834419E0,2.937989317E1
8.234247460E-1,8.806467056E0,2.811306190E1,4.793318748E0,2.984751273E1
8.283370380E-1,8.263835907E0,2.842478943E1,5.490047455E0,3.010648201E1
8.332493300E-1,7.769708157E0,2.836187363E1,6.426202774E0,3.010083591E1
8.381616210E-1,7.227234364E0,2.805141068E1,7.516632557E0,2.992681611E1
8.430739130E-1,6.606447697E0,2.760311508E1,8.605093956E0,2.965846853E1
8.479862050E-1,6.041848660E0,2.701185226E1,9.545520782E0,2.927902090E1
8.528984960E-1,5.679736137E0,2.624647903E1,1.023954296E1,2.873996006E1
8.578107880E-1,5.440203667E0,2.526201248E1,1.057895184E1,2.792273827E1
8.627230800E-1,5.360995770E0,2.414257812E1,1.068608284E1,2.694061470E1
8.676353710E-1,5.315737724E0,2.283419800E1,1.056499195E1,2.571530129E1
8.725476110E-1,5.178705215E0,2.143147278E1,1.014199638E1,2.426905651E1
8.774599550E-1,4.979577065E0,1.988852501E1,9.478305817E0,2.258733928E1
8.823721940E-1,4.769586086E0,1.827424049E1,8.614824295E0,2.075842033E1
8.872844860E-1,4.614219189E0,1.659769630E1,7.705828667E0,1.887205174E1
8.921967770E-1,4.431155682E0,1.489391422E1,6.783371449E0,1.695517472E1
8.971090690E-1,4.214305878E0,1.325226116E1,5.951162338E0,1.512610767E1
9.020213610E-1,3.928674221E0,1.162573719E1,5.243571281E0,1.334493485E1
9.069336520E-1,3.670037746E0,1.005071640E1,4.645259857E0,1.166466958E1
9.118459440E-1,3.380726337E0,8.427418709E0,4.129911423E0,9.975312778E0
9.167582360E-1,3.045840740E0,6.818313599E0,3.781630516E0,8.370619780E0
9.216705270E-1,2.614508152E0,5.254363060E0,3.601612329E0,6.885898301E0
9.265828190E-1,2.116514683E0,3.804368019E0,3.532159328E0,5.606157325E0
9.314951110E-1,1.648090720E0,2.439064026E0,3.613941669E0,4.661095444E0
9.364074020E-1,1.262672305E0,1.072112083E0,3.678070784E0,4.033853041E0
9.413196940E-1,9.782332778E-1,-2.585916519E-1,3.782908440E0,3.915891501E0
9.462319860E-1,6.985260248E-1,-1.601021767E0,3.898183823E0,4.271656168E0
9.511442770E-1,3.775755167E-1,-2.881362915E0,3.986294746E0,4.933088416E0
9.560565690E-1,1.198492646E-1,-4.076134682E0,4.045048714E0,5.743836426E0
9.609688610E-1,-7.776597142E-2,-5.207228661E0,4.134136200E0,6.649237549E0
9.658811520E-1,-1.895853877E-1,-6.315464973E0,4.203130245E0,7.588632572E0
9.707934440E-1,-1.968263090E-1,-7.431910515E0,4.237247944E0,8.557236974E0
9.757057360E-1,-1.210398674E-1,-8.485065460E0,4.195210934E0,9.466297127E0
9.806180270E-1,-2.748260275E-3,-9.506216049E0,4.135845661E0,1.036693641E1
9.855303190E-1,-4.035912454E-2,-1.055034351E1,3.993866682E0,1.128106148E1
9.904426110E-1,-1.414222717E-1,-1.154358768E1,3.739909887E0,1.213512846E1
9.953549020E-1,-2.518610060E-1,-1.247447872E1,3.394993305E0,1.293066251E1
1.000267194E0,-2.982346416E-1,-1.338404942E1,2.908560038E0,1.369968774E1
1.005179486E0,-2.498706877E-1,-1.434649467E1,2.447045565E0,1.455583652E1
1.010091777E0,-1.950126290E-1,-1.534038353E1,1.971119881E0,1.546773126E1
1.015004069E0,-1.740428209E-1,-1.628488731E1,1.443671703E0,1.634967993E1
1.019916361E0,-3.276957870E-1,-1.724971008E1,9.259448051E-1,1.727765193E1
1.024828652E0,-7.252135873E-1,-1.805177116E1,4.672837257E-1,1.807237480E1
1.029740944E0,-1.267029524E0,-1.875906754E1,1.127938628E-1,1.880214618E1
1.034653236E0,-1.868821740E0,-1.937020493E1,-7.513207197E-2,1.946029235E1
1.039565527E0,-2.384124756E0,-1.992181778E1,-1.148959994E-1,2.006429853E1
1.044477819E0,-2.745543480E0,-2.041218185E1,-6.015568972E-2,2.059608690E1
1.049390111E0,-2.940080166E0,-2.079182434E1,4.434168339E-3,2.099866783E1
1.054302402E0,-3.040087700E0,-2.108288956E1,3.913342953E-3,2.130094788E1
1.059214694E0,-3.016920328E0,-2.136927986E1,-1.084252596E-1,2.158146626E1
1.064126986E0,-2.915722847E0,-2.158199501E1,-3.202418089E-1,2.178041559E1
1.069039277E0,-2.793429375E0,-2.165003586E1,-6.891478300E-1,2.184038061E1
1.073951569E0,-2.670910597E0,-2.159570885E1,-1.223090768E0,2.179459463E1
1.078863861E0,-2.449686527E0,-2.146742058E1,-1.834887624E0,2.168450882E1
1.083776152E0,-2.181804180E0,-2.132053375E1,-2.433255672E0,2.156956565E1
1.088688444E0,-1.878526449E0,-2.106714630E1,-2.950895309E0,2.135559173E1
1.093600736E0,-1.567687273E0,-2.066020584E1,-3.449018955E0,2.100470139E1
1.098513027E0,-1.217336416E0,-2.014093399E1,-3.816474676E0,2.053544762E1
1.103425319E0,-8.837084770E-1,-1.963364410E1,-3.987426758E0,2.005393960E1
1.108337611E0,-5.705444813E-1,-1.909039688E1,-4.017194271E0,1.951682925E1
1.113249902E0,-3.535586596E-1,-1.847535706E1,-3.993827343E0,1.890540872E1
1.118162194E0,-2.798886299E-1,-1.790539742E1,-3.914589405E0,1.833045565E1
1.123074486E0,-2.487596869E-1,-1.727517319E1,-3.788504839E0,1.768746050E1
1.127986777E0,-3.245713115E-1,-1.660374451E1,-3.636470318E0,1.700039984E1
1.132899069E0,-3.208883405E-1,-1.594815063E1,-3.402958393E0,1.631032200E1
1.137811361E0,-2.711111307E-1,-1.530556774E1,-3.085308552E0,1.561579438E1
1.142723652E0,-1.941674948E-1,-1.455875778E1,-2.706853390E0,1.480953019E1
1.147635944E0,-1.449090838E-1,-1.376022911E1,-2.266798258E0,1.394644321E1
1.152548236E0,-9.706187248E-2,-1.294322109E1,-1.814347267E0,1.307012813E1
1.157460527E0,-2.201038599E-2,-1.213848209E1,-1.425020695E0,1.222186221E1
1.162372819E0,3.721049428E-2,-1.118360996E1,-1.088520169E0,1.123652048E1
1.167285111E0,5.177813768E-2,-1.002897072E1,-7.971242666E-1,1.006073266E1
1.172197402E0,1.530940682E-1,-8.827730179E0,-5.359443426E-1,8.845309166E0
1.177109694E0,4.224019051E-1,-7.601284981E0,-1.993945986E-1,7.615623082E0
1.182021986E0,7.381753922E-1,-6.282763958E0,1.984772980E-1,6.329093071E0
1.186934277E0,1.076923490E0,-4.839015007E0,6.869794726E-1,5.004774844E0
1.191846569E0,1.319609523E0,-3.251391888E0,1.271402359E0,3.732208791E0
1.196758861E0,1.473708987E0,-1.568123817E0,1.715830088E0,2.752254235E0
1.201671152E0,1.548796535E0,1.722917557E-1,1.985143423E0,2.523737222E0
1.206583444E0,1.630449057E0,2.045928001E0,2.230560541E0,3.437962455E0
1.211495736E0,1.732825041E0,4.040313721E0,2.555098057E0,5.084815008E0
1.216408027E0,1.851081610E0,6.224050522E0,2.830298901E0,7.083494892E0
1.221320319E0,2.002135277E0,8.465146065E0,3.068904877E0,9.224175882E0
1.226232611E0,2.155171871E0,1.062974072E1,3.292922974E0,1.133487958E1
1.231144902E0,2.332027912E0,1.284202290E1,3.578856945E0,1.353381407E1
1.236057194E0,2.525611401E0,1.508974457E1,3.883826733E0,1.578490463E1
1.240969486E0,2.779078960E0,1.719135284E1,4.284531593E0,1.793385356E1
1.245881777E0,3.123934269E0,1.902563477E1,4.659218311E0,1.983537393E1
1.250794069E0,3.512968540E0,2.075315857E1,4.951055050E0,2.162284636E1
1.255706361E0,3.987761736E0,2.235245705E1,5.442519188E0,2.334856730E1
1.260618652E0,4.549728394E0,2.367075729E1,6.055554390E0,2.485305853E1
1.265530944E0,4.955862522E0,2.487062836E1,6.762827873E0,2.624584861E1
1.270443236E0,5.172899246E0,2.606651497E1,7.448298454E0,2.759889924E1
1.275355527E0,5.320266724E0,2.707915878E1,7.993780136E0,2.873128259E1
1.280267819E0,5.517256260E0,2.780155182E1,8.529544830E0,2.959931646E1
1.285180111E0,5.840029240E0,2.814858437E1,9.039772987E0,3.013579664E1
1.290092402E0,6.155275345E0,2.822620773E1,9.425209045E0,3.038816847E1
1.295004694E0,6.392132282E0,2.809466934E1,9.689616203E0,3.039832993E1
1.299916986E0,6.541898251E0,2.780215073E1,9.891575813E0,3.022580503E1
1.304829277E0,6.674716949E0,2.730379105E1,9.926769257E0,2.980922005E1
1.309741569E0,6.736324787E0,2.650260353E1,9.793660164E0,2.904620190E1
1.314653861E0,6.650924683E0,2.542148590E1,9.470932961E0,2.793179757E1
1.319566152E0,6.490535736E0,2.415983963E1,8.967677116E0,2.657525424E1
1.324478444E0,6.358113766E0,2.273806572E1,8.378419876E0,2.505280749E1
1.329390736E0,6.239525795E0,2.108353424E1,7.715925694E0,2.330198720E1
1.334303027E0,6.118427753E0,1.935277176E1,7.064617157E0,2.149124818E1
1.339215319E0,5.959367275E0,1.757286835E1,6.446799755E0,1.964385368E1
1.344127611E0,5.724312782E0,1.576359653E1,5.844534874E0,1.775999213E1
1.349039902E0,5.478065491E0,1.398519802E1,5.337564945E0,1.594003026E1
1.353952194E0,5.158380508E0,1.218553734E1,4.850661755E0,1.409344277E1
1.358864486E0,4.805459499E0,1.040333080E1,4.380365849E0,1.226822472E1
1.363776777E0,4.371043205E0,8.636532784E0,3.937705517E0,1.044993981E1
1.368689069E0,3.935458660E0,6.916515350E0,3.533523560E0,8.706997657E0
1.373601413E0,3.452066898E0,5.257761002E0,3.183514595E0,7.049509330E0
1.378513652E0,3.036775351E0,3.676980019E0,2.855806351E0,5.558580439E0
1.383425944E0,2.645451069E0,2.138264656E0,2.633249760E0,4.301696339E0
1.388338288E0,2.310864687E0,6.964130402E-1,2.445675850E0,3.436046724E0
1.393250527E0,2.010439873E0,-7.180662155E-1,2.328392267E0,3.158939398E0
1.398162871E0,1.664189935E0,-2.150611877E0,2.287951946E0,3.553784419E0
1.403075163E0,1.218249083E0,-3.536839008E0,2.326441526E0,4.405189119E0
1.407987455E0,8.147082925E-1,-4.891380310E0,2.372208595E0,5.496974128E0
1.412899746E0,5.408456326E-1,-6.162056446E0,2.437393188E0,6.648634386E0
1.417812038E0,3.648192286E-1,-7.432856560E0,2.510407925E0,7.853826943E0
1.422724330E0,2.742561996E-1,-8.589448929E0,2.610782623E0,8.981649919E0
1.427636621E0,2.168023884E-1,-9.742103577E0,2.688326836E0,1.010854522E1
1.432548913E0,3.720321357E-1,-1.092192841E1,2.635960340E0,1.124167314E1
1.437461205E0,6.231375933E-1,-1.215986538E1,2.545031071E0,1.243896337E1
1.442373496E0,7.169998884E-1,-1.334364700E1,2.401235104E0,1.357692654E1
1.447285788E0,5.846185684E-1,-1.438531303E1,2.161288738E0,1.455850882E1
1.452198080E0,3.164860010E-1,-1.538817978E1,1.767360926E0,1.549257257E1
1.457110371E0,-7.099199295E-2,-1.642901230E1,1.292788744E0,1.647995108E1
1.462022663E0,-4.711011648E-1,-1.752481079E1,7.793371081E-1,1.754845566E1
1.466934955E0,-8.156789541E-1,-1.867588997E1,9.706264734E-2,1.869394606E1
1.471847246E0,-1.101409912E0,-1.988980103E1,-5.897140503E-1,1.992900026E1
1.476759538E0,-1.420095801E0,-2.111918640E1,-1.188565016E0,2.120022154E1
1.481671830E0,-1.705452919E0,-2.222852707E1,-1.666725874E0,2.235607212E1
1.486584121E0,-1.986682296E0,-2.311616898E1,-2.022699356E0,2.328938572E1
1.491496413E0,-2.245028496E0,-2.376189423E1,-2.352757454E0,2.398339504E1
1.496408705E0,-2.401863098E0,-2.434352875E1,-2.652677774E0,2.460514250E1
1.501320996E0,-2.457664013E0,-2.479730415E1,-2.896700382E0,2.508659560E1
1.506233288E0,-2.426970720E0,-2.514548111E1,-3.123624802E0,2.545471349E1
1.511145580E0,-2.443451166E0,-2.536965561E1,-3.362828255E0,2.570794611E1
1.516057871E0,-2.454313278E0,-2.553020859E1,-3.545764923E0,2.589184530E1
1.520970163E0,-2.478575945E0,-2.549632263E1,-3.615732908E0,2.587043353E1
1.525882455E0,-2.489917278E0,-2.533554840E1,-3.565958500E0,2.570614247E1
1.530794746E0,-2.457041502E0,-2.507209015E1,-3.427690029E0,2.542431545E1
1.535707038E0,-2.372540236E0,-2.478483200E1,-3.305904627E0,2.511664488E1
1.540619330E0,-2.222167492E0,-2.444504929E1,-3.202806234E0,2.475391748E1
1.545531621E0,-2.106129646E0,-2.399531555E1,-3.070165634E0,2.428243949E1
1.550443913E0,-2.038536549E0,-2.344758797E1,-2.888694763E0,2.371264579E1
1.555356205E0,-2.012047768E0,-2.274450493E1,-2.674808025E0,2.298946364E1
1.560268496E0,-1.973734021E0,-2.197675705E1,-2.485599995E0,2.220476714E1
1.565180788E0,-1.918558836E0,-2.118218231E1,-2.330187321E0,2.139615593E1
1.570093080E0,-1.870208979E0,-2.035077286E1,-2.136740208E0,2.054792681E1
1.575005423E0,-1.725441217E0,-1.950347710E1,-1.881436467E0,1.966983908E1
1.579917715E0,-1.467286944E0,-1.859427834E1,-1.547249556E0,1.871614541E1
1.584830007E0,-1.195748448E0,-1.761785889E1,-1.102681398E0,1.769278588E1
1.589742298E0,-8.724814653E-1,-1.661432648E1,-5.901277661E-1,1.664768209E1
1.594654590E0,-5.764827728E-1,-1.544712448E1,-3.041988611E-2,1.545790777E1
1.599566882E0,-2.099221945E-1,-1.417585087E1,6.058344841E-1,1.419034357E1
1.604479173E0,2.821949720E-1,-1.274770737E1,1.276674390E0,1.281458445E1
1.609391465E0,8.330819607E-1,-1.115308475E1,2.055025816E0,1.137138761E1
1.614303757E0,1.235049248E0,-9.344358444E0,2.846818209E0,9.846154340E0
1.619216048E0,1.579166532E0,-7.298072338E0,3.608568430E0,8.293213665E0
1.624128340E0,1.987196922E0,-5.053034782E0,4.325512409E0,6.942058032E0
1.629040632E0,2.339376450E0,-2.633702755E0,5.018321514E0,6.131282345E0
1.633952923E0,2.721642256E0,3.333473206E-2,5.681108475E0,6.299479445E0
1.638865215E0,3.249021292E0,2.985437393E0,6.255212784E0,7.654845704E0
1.643777507E0,3.922850609E0,6.197716713E0,6.787049770E0,9.993222400E0
1.648689798E0,4.819333553E0,9.566342354E0,7.433038712E0,1.303805762E1
1.653602090E0,5.869036674E0,1.293026543E1,8.162940979E0,1.637897924E1
1.658514382E0,7.026189804E0,1.632695770E1,8.785923004E0,1.982748935E1
1.663426673E0,8.003163338E0,1.944774055E1,9.201693535E0,2.295509530E1
1.668338965E0,8.763314247E0,2.212820053E1,9.381278038E0,2.558244150E1
1.673251257E0,9.515582085E0,2.462463760E1,9.326417923E0,2.799823478E1
1.678163548E0,1.011657047E1,2.712340927E1,9.230335236E0,3.038459177E1
1.683075840E0,1.066925240E1,2.944961548E1,9.465984344E0,3.272182235E1
1.687988132E0,1.113367081E1,3.118503571E1,1.011046314E1,3.462205284E1
1.692900423E0,1.159676170E1,3.243772507E1,1.068457699E1,3.606731311E1
1.697812767E0,1.209517765E1,3.334187317E1,1.098661232E1,3.713057337E1
1.702725059E0,1.242679405E1,3.394766617E1,1.113551712E1,3.782682897E1
1.707637350E0,1.258276558E1,3.429089355E1,1.132194614E1,3.824104908E1
1.712549642E0,1.254885197E1,3.436928558E1,1.143039513E1,3.833243287E1
1.717461934E0,1.247579670E1,3.418787384E1,1.120469284E1,3.807888342E1
1.722374225E0,1.239949322E1,3.362295532E1,1.083317375E1,3.743805831E1
1.727286517E0,1.229367542E1,3.264226532E1,1.031671906E1,3.637425783E1
1.732198809E0,1.203417301E1,3.133331680E1,9.617486954E0,3.491552831E1
1.737111100E0,1.168098450E1,2.981721115E1,8.780116081E0,3.320545013E1
1.742023392E0,1.132771397E1,2.808602905E1,7.841020584E0,3.128296238E1
1.746935684E0,1.098728085E1,2.610328674E1,6.754446983E0,2.911570836E1
1.751847975E0,1.067752552E1,2.392574310E1,5.545609474E0,2.678067435E1
1.756760267E0,1.026311111E1,2.166254044E1,4.310951233E0,2.435531581E1
1.761672559E0,9.632323265E0,1.939377022E1,3.163547039E0,2.188396684E1
1.766584850E0,8.847447395E0,1.714661789E1,2.147545338E0,1.941380389E1
1.771497142E0,7.984234333E0,1.490025997E1,1.422498703E0,1.696435226E1
1.776409434E0,7.117877007E0,1.265760422E1,1.014871240E0,1.455709728E1
1.781321725E0,6.232275009E0,1.042614174E1,9.450018406E-1,1.218354266E1
1.786234017E0,5.301800728E0,8.198818207E0,1.119843125E0,9.827703677E0
1.791146309E0,4.441560268E0,6.118900299E0,1.564629316E0,7.721169820E0
1.796058600E0,3.608745098E0,4.193140030E0,2.128254890E0,5.927472764E0
1.800970944E0,2.758234501E0,2.416325569E0,2.722204208E0,4.566933607E0
1.805883236E0,2.055622101E0,7.283535004E-1,3.233771801E0,3.900430887E0
1.810795527E0,1.434889793E0,-9.020538330E-1,3.588151217E0,3.968304296E0
1.815707819E0,8.613989353E-1,-2.408136368E0,3.766979218E0,4.553159487E0
1.820620111E0,2.981058955E-1,-3.747161865E0,3.688812733E0,5.266633512E0
1.825532402E0,-1.317134798E-1,-5.081901550E0,3.699637890E0,6.287319964E0
1.830444694E0,-3.640887439E-1,-6.414828777E0,3.813305855E0,7.471538690E0
1.835356986E0,-4.277749360E-1,-7.705454350E0,3.955556631E0,8.671992066E0
1.840269277E0,-3.558776379E-1,-8.965900421E0,4.107482433E0,9.868405707E0
1.845181569E0,-2.364790291E-1,-1.019626141E1,4.216816425E0,1.103635854E1
1.850093861E0,-1.529363692E-1,-1.138943481E1,4.142726898E0,1.212042908E1
1.855006152E0,-1.527673304E-1,-1.256697464E1,3.932829618E0,1.316887764E1
1.859918444E0,-1.906464696E-1,-1.375280762E1,3.569877386E0,1.420985883E1
1.864830736E0,-1.734724045E-1,-1.499711418E1,3.045698643E0,1.530424146E1
1.869743027E0,-5.364418030E-4,-1.630461502E1,2.435365438E0,1.648549290E1
1.874655319E0,1.732549667E-1,-1.754397202E1,1.746711493E0,1.763156183E1
1.879567611E0,2.312214971E-1,-1.869416809E1,1.032613516E0,1.872409343E1
1.884479902E0,2.353681326E-1,-1.982752609E1,2.859965563E-1,1.983098543E1
1.889392194E0,1.372567415E-1,-2.103305054E1,-4.092309475E-1,2.103747904E1
1.894304538E0,-8.790838718E-2,-2.222770691E1,-1.078851581E0,2.225404689E1
1.899216830E0,-4.006098509E-1,-2.330965996E1,-1.657440186E0,2.337194565E1
1.904129121E0,-7.924996614E-1,-2.422269058E1,-2.186470985E0,2.433408001E1
1.909041413E0,-1.159464717E0,-2.497511673E1,-2.537298679E0,2.513043371E1
1.913953705E0,-1.516978145E0,-2.562763214E1,-2.743206978E0,2.581863545E1
1.918865996E0,-1.870757222E0,-2.615942574E1,-2.791407108E0,2.637436712E1
1.923778288E0,-2.186027527E0,-2.653532410E1,-2.704551458E0,2.676222599E1
1.928690580E0,-2.415933609E0,-2.679421806E1,-2.627303123E0,2.703090044E1
1.933602871E0,-2.522930145E0,-2.699868774E1,-2.639740944E0,2.724449575E1
1.938515163E0,-2.590866327E0,-2.723497009E1,-2.714848995E0,2.749230055E1
1.943427455E0,-2.643383980E0,-2.729057693E1,-2.807262421E0,2.756163621E1
1.948339746E0,-2.770927668E0,-2.707775497E1,-3.025083065E0,2.738674829E1
1.953252038E0,-2.820225000E0,-2.662594986E1,-3.304282665E0,2.697801251E1
1.958164330E0,-2.793246746E0,-2.608380890E1,-3.576520920E0,2.647562683E1
1.963076621E0,-2.727788448E0,-2.550154495E1,-3.730231762E0,2.591687199E1
1.967988965E0,-2.683561563E0,-2.478593826E1,-3.863966227E0,2.522844572E1
1.972901257E0,-2.653520584E0,-2.402064896E1,-3.913370132E0,2.448156885E1
1.977813548E0,-2.613437653E0,-2.314325333E1,-3.826148510E0,2.360253468E1
1.982725840E0,-2.524624348E0,-2.218923378E1,-3.611950159E0,2.262259949E1
1.987638132E0,-2.333859921E0,-2.116279984E1,-3.318440199E0,2.154815640E1
1.992550423E0,-2.112261534E0,-2.013498306E1,-2.969285965E0,2.046205881E1
1.997462715E0,-1.918843627E0,-1.906912994E1,-2.520984888E0,1.933052101E1
2.002375007E0,-1.750727654E0,-1.789286995E1,-1.986619949E0,1.808774450E1
2.007287298E0,-1.641690135E0,-1.653656387E1,-1.357242584E0,1.667318802E1
2.012199590E0,-1.554042101E0,-1.507655144E1,-6.958469152E-1,1.517239773E1
2.017111882E0,-1.318192363E0,-1.357223511E1,-8.957909048E-2,1.363639327E1
2.022024173E0,-8.789114952E-1,-1.199925804E1,5.346940160E-1,1.204327931E1
2.026936465E0,-4.751456976E-1,-1.021405411E1,1.238222718E0,1.029979904E1
2.031848757E0,-2.098716497E-1,-8.111833572E0,1.970201492E0,8.350304422E0
2.036761100E0,-9.272754192E-3,-5.781631470E0,2.718291044E0,6.388775676E0
2.041673392E0,3.583666980E-1,-3.219172955E0,3.450860262E0,4.732857250E0
2.046585684E0,9.364295006E-1,-4.083013535E-1,4.155529022E0,4.279255970E0
2.051497975E0,1.759232640E0,2.659834862E0,4.795803547E0,5.759284038E0
2.056410267E0,2.672830105E0,5.841130257E0,5.339514256E0,8.353037527E0
2.061322559E0,3.566614151E0,8.967884064E0,5.799097061E0,1.125936090E1
2.066234850E0,4.409216404E0,1.213072300E1,6.112126827E0,1.428123679E1
2.071147142E0,5.039975643E0,1.518601799E1,6.409175396E0,1.723641570E1
2.076059434E0,5.599031448E0,1.806696510E1,6.691028595E0,2.006325609E1
2.080971725E0,6.319490910E0,2.059706879E1,6.991854668E0,2.265085516E1
2.085884017E0,7.235620499E0,2.286766434E1,7.274590492E0,2.506399695E1
2.090796309E0,8.154417038E0,2.496483421E1,7.634921551E0,2.735012782E1
2.095708600E0,9.000047684E0,2.707920837E1,8.466079712E0,2.976506157E1
2.100620892E0,9.778599739E0,2.920482635E1,9.583030701E0,3.225488138E1
2.105533236E0,1.066350937E1,3.118769836E1,1.040403366E1,3.456337480E1
2.110445527E0,1.175190258E1,3.267366791E1,1.090896702E1,3.639617219E1
2.115357819E0,1.273979092E1,3.364375305E1,1.111580658E1,3.765322759E1
2.120270111E0,1.326537800E1,3.432993317E1,1.119332695E1,3.846823538E1
2.125182402E0,1.328625011E1,3.483501434E1,1.121917057E1,3.893420674E1
2.130094694E0,1.306273556E1,3.500881958E1,1.096914291E1,3.894322284E1
2.135006986E0,1.291751480E1,3.465855789E1,1.047267532E1,3.844157583E1
2.139919277E0,1.277638721E1,3.382119751E1,9.964656830E0,3.750205137E1
2.144831569E0,1.252462769E1,3.270805740E1,9.541188240E0,3.630038004E1
2.149743861E0,1.218621826E1,3.138924026E1,9.166606903E0,3.489720622E1
2.154656152E0,1.177082825E1,2.977251053E1,8.752154350E0,3.318968193E1
2.159568444E0,1.134307289E1,2.783297729E1,8.282480240E0,3.117594275E1
2.164480736E0,1.086478996E1,2.559129715E1,7.799225330E0,2.887535396E1
2.169393027E0,1.034805393E1,2.333089828E1,7.281506538E0,2.654116374E1
2.174305371E0,9.742213249E0,2.103855515E1,6.700710297E0,2.413360810E1
2.179217663E0,9.090020180E0,1.869626999E1,6.035067558E0,2.164719425E1
2.184129955E0,8.367176056E0,1.635523605E1,5.389410496E0,1.914547275E1
2.189042246E0,7.685459137E0,1.404965591E1,4.832978249E0,1.672772526E1
2.193954538E0,6.988960266E0,1.179677677E1,4.464071751E0,1.442003621E1
2.198866830E0,6.281451225E0,9.668560982E0,4.333985806E0,1.231751330E1
2.203779121E0,5.563966751E0,7.571866989E0,4.375401974E0,1.036508746E1
2.208691413E0,4.849108219E0,5.497296333E0,4.600818634E0,8.654573912E0
2.213603705E0,4.149649143E0,3.435365677E0,4.989917755E0,7.343065065E0
2.218515996E0,3.432794809E0,1.438695908E0,5.431964874E0,6.584843849E0
2.223428288E0,2.737404585E0,-4.401826859E-1,5.784833908E0,6.414939439E0
2.228340580E0,2.049508095E0,-2.251602173E0,6.145565033E0,6.858437530E0
2.233252871E0,1.403296232E0,-3.978950977E0,6.479448795E0,7.732046811E0
2.238165215E0,9.529061913E-1,-5.593727112E0,6.753825188E0,8.821109220E0
2.243077507E0,6.519305110E-1,-7.146325111E0,6.840026855E0,9.913674565E0
2.247989798E0,5.454336405E-1,-8.648794174E0,6.704537392E0,1.095673127E1
2.252902090E0,5.927237272E-1,-1.008448887E1,6.411495209E0,1.196476109E1
2.257814382E0,7.082535028E-1,-1.147501373E1,5.933687210E0,1.293778216E1
2.262726673E0,9.213290215E-1,-1.281090260E1,5.296132088E0,1.389305897E1
2.267638965E0,1.119982004E0,-1.413056374E1,4.509164810E0,1.487480280E1
2.272551257E0,1.278133392E0,-1.542945004E1,3.554109812E0,1.588500078E1
2.277463548E0,1.333884001E0,-1.674140549E1,2.519407511E0,1.698238259E1
2.282375840E0,1.251511931E0,-1.805494499E1,1.493531704E0,1.815978958E1
2.287288132E0,1.023560047E0,-1.927515602E1,5.173891187E-1,1.930924665E1
2.292200475E0,7.762857080E-1,-2.040534401E1,-3.391156197E-1,2.042292053E1
2.297112767E0,4.468036890E-1,-2.145124054E1,-1.086855888E0,2.148340313E1
2.302025059E0,1.349670887E-1,-2.243041611E1,-1.690499306E0,2.249443422E1
2.306937350E0,-5.693078041E-2,-2.336271667E1,-2.205343246E0,2.346664250E1
2.311849642E0,-2.342656851E-1,-2.418426895E1,-2.646041393E0,2.432972010E1
2.316761934E0,-4.620910883E-1,-2.493648529E1,-3.024681568E0,2.512350544E1
2.321674225E0,-7.576763630E-1,-2.559144211E1,-3.370136738E0,2.582351262E1
2.326586517E0,-1.088342428E0,-2.607111359E1,-3.648976326E0,2.634772250E1
2.331498809E0,-1.416825294E0,-2.647443008E1,-3.944815397E0,2.680418644E1
2.336411100E0,-1.755906582E0,-2.686894417E1,-4.140263557E0,2.724270822E1
2.341323392E0,-2.111172915E0,-2.711175728E1,-4.201631546E0,2.751650671E1
2.346235684E0,-2.408730268E0,-2.716508675E1,-4.125885010E0,2.758200222E1
2.351148027E0,-2.569857359E0,-2.709141731E1,-4.017408848E0,2.750797398E1
2.356060319E0,-2.786197186E0,-2.696026993E1,-3.872849226E0,2.737915284E1
2.360972611E0,-3.036446333E0,-2.678372574E1,-3.729822636E0,2.721212134E1
2.365884902E0,-3.311376333E0,-2.643287277E1,-3.583010674E0,2.687935903E1
2.370797194E0,-3.570736408E0,-2.592717361E1,-3.474987268E0,2.640159137E1
2.375709486E0,-3.728724957E0,-2.531940079E1,-3.424585819E0,2.582059709E1
2.380621777E0,-3.780784845E0,-2.459523392E1,-3.333654404E0,2.510643577E1
2.385534069E0,-3.791234493E0,-2.380719757E1,-3.267337084E0,2.432758942E1
2.390446361E0,-3.704589367E0,-2.299323654E1,-3.204767704E0,2.350922043E1
2.395358652E0,-3.515513420E0,-2.217914581E1,-3.129826546E0,2.267309326E1
2.400270996E0,-3.256843328E0,-2.129976082E1,-2.916371346E0,2.174378213E1
2.405183288E0,-2.879902601E0,-2.047145844E1,-2.648393631E0,2.084198739E1
2.410095580E0,-2.532273769E0,-1.971957970E1,-2.256426096E0,2.000914023E1
2.415007871E0,-2.227505684E0,-1.897145081E1,-1.850202084E0,1.919116919E1
2.419920163E0,-2.115694523E0,-1.821198654E1,-1.469944000E0,1.839329640E1
2.424832455E0,-1.979120016E0,-1.738323975E1,-1.046009302E0,1.752678167E1
2.429744746E0,-1.935112119E0,-1.646320152E1,-5.992417336E-1,1.658736730E1
2.434657038E0,-1.928658962E0,-1.549917984E1,1.473639905E-2,1.561872332E1
2.439569330E0,-1.993985772E0,-1.432830429E1,7.685336471E-1,1.448678457E1
2.444481621E0,-2.050839424E0,-1.289087486E1,1.625804305E0,1.315385254E1
2.449393965E0,-1.944774866E0,-1.126592827E1,2.528996944E0,1.170893311E1
2.454306257E0,-1.635691166E0,-9.563395500E0,3.362950802E0,1.026856646E1
2.459218548E0,-1.152298927E0,-7.878647804E0,4.100594997E0,8.956325328E0
2.464130840E0,-3.864502311E-1,-6.144392967E0,4.621192455E0,7.697943130E0
2.469043132E0,6.226360798E-1,-4.274374962E0,5.119477272E0,6.698283701E0
2.473955423E0,1.639723182E0,-2.142040253E0,5.679594040E0,6.287671828E0
2.478867715E0,2.551375866E0,3.692140579E-1,6.249118805E0,6.759979561E0
2.483780007E0,3.425464153E0,3.287226677E0,6.861819744E0,8.344113739E0
2.488692298E0,4.375437737E0,6.493916512E0,7.556362152E0,1.088182044E1
2.493604590E0,5.608724117E0,9.945370674E0,8.304391861E0,1.411846692E1
2.498516934E0,7.005718231E0,1.346359539E1,9.080594063E0,1.768631328E1
2.503429173E0,8.573709488E0,1.692085266E1,9.945575714E0,2.141817512E1
2.508341517E0,1.004727650E1,2.011559677E1,1.057900429E1,2.484955392E1
2.513253809E0,1.133286667E1,2.294946861E1,1.090191460E1,2.782020342E1
2.518166100E0,1.238221264E1,2.554174805E1,1.111011124E1,3.048171017E1
2.523078392E0,1.325243378E1,2.786805725E1,1.130820084E1,3.286534683E1
2.527990684E0,1.402690315E1,2.978917503E1,1.146733570E1,3.486615478E1
2.532902975E0,1.463006401E1,3.130479050E1,1.166186714E1,3.646954656E1
2.537815267E0,1.490896606E1,3.254385376E1,1.168898201E1,3.765649993E1
2.542727559E0,1.482931042E1,3.358266068E1,1.161201000E1,3.850379620E1
2.547639902E0,1.456401730E1,3.455477905E1,1.159268570E1,3.924963333E1
2.552552194E0,1.440091228E1,3.524917221E1,1.175987625E1,3.985204017E1
2.557464486E0,1.453572655E1,3.537123489E1,1.197720146E1,4.007324493E1
2.562376777E0,1.486599255E1,3.497571182E1,1.206310844E1,3.987250603E1
2.567289069E0,1.511225319E1,3.418213272E1,1.196263504E1,3.924159822E1
2.572201361E0,1.508357048E1,3.325131607E1,1.164886951E1,3.832571304E1
2.577113652E0,1.485439110E1,3.201413345E1,1.105560684E1,3.698356552E1
2.582025944E0,1.444859886E1,3.046731567E1,1.021597290E1,3.523330010E1
2.586938236E0,1.392391586E1,2.869160843E1,9.221696854E0,3.319824574E1
2.591850527E0,1.339534760E1,2.672487068E1,8.113366127E0,3.097548644E1
2.596762871E0,1.280348492E1,2.464084244E1,6.981058121E0,2.863276994E1
2.601675163E0,1.215321636E1,2.244386864E1,5.880851746E0,2.619183698E1
2.606587455E0,1.140845299E1,2.017879105E1,4.885560036E0,2.368976793E1
2.611499746E0,1.059989929E1,1.794508743E1,3.996379375E0,2.122157101E1
2.616412038E0,9.726975441E0,1.576767445E1,3.241359472E0,1.880797756E1
2.621324330E0,8.879530907E0,1.367591858E1,2.828546762E0,1.654924454E1
2.626236621E0,8.085062981E0,1.164867973E1,2.705843210E0,1.443542761E1
2.631148913E0,7.261312485E0,9.700415611E0,2.776691437E0,1.243120016E1
2.636061205E0,6.596250534E0,7.826260567E0,3.062678337E0,1.068367325E1
2.640973548E0,6.040849686E0,6.033203125E0,3.533479691E0,9.239961233E0
2.645885840E0,5.476790905E0,4.254098892E0,4.111509323E0,8.062078201E0
2.650798132E0,4.843303680E0,2.527017593E0,4.839525223E0,7.298247244E0
2.655710423E0,4.179781914E0,9.449987411E-1,5.578560352E0,7.034481862E0
2.660622715E0,3.525434971E0,-4.635295868E-1,6.210992813E0,7.156813756E0
2.665535007E0,2.938621998E0,-1.784811974E0,6.711783409E0,7.541159696E0
2.670447298E0,2.408614159E0,-3.045168400E0,7.043542385E0,8.042758363E0
2.675359590E0,1.991970897E0,-4.309084892E0,7.228047848E0,8.647591361E0
2.680271882E0,1.680675149E0,-5.478416920E0,7.219497681E0,9.217313473E0
2.685184225E0,1.368825555E0,-6.648806572E0,7.074690819E0,9.804670439E0
2.690096517E0,1.099038243E0,-7.729371548E0,6.809329987E0,1.035944228E1
2.695008809E0,9.336647987E-1,-8.739354134E0,6.431427956E0,1.089088179E1
2.699921100E0,9.331629276E-1,-9.702775955E0,6.006309032E0,1.144947171E1
2.704833392E0,1.031457663E0,-1.063408279E1,5.541967392E0,1.203582255E1
2.709745684E0,1.145875454E0,-1.151426029E1,5.089614391E0,1.264102034E1
2.714657975E0,1.212666154E0,-1.237455368E1,4.655124187E0,1.327668329E1
2.719570267E0,1.256146312E0,-1.329161453E1,4.192129135E0,1.399352947E1
2.724482611E0,1.216287851E0,-1.435637856E1,3.802847862E0,1.490122858E1
2.729394902E0,1.116650105E0,-1.558073616E1,3.532908678E0,1.601523308E1
2.734307194E0,1.071375132E0,-1.697654533E1,3.265812874E0,1.732098351E1
2.739219486E0,1.110873818E0,-1.858429718E1,2.918632507E0,1.884485495E1
2.744131777E0,1.164975643E0,-2.039910698E1,2.393537998E0,2.057206256E1
2.749044069E0,1.132529020E0,-2.237565231E1,1.606264234E0,2.246180142E1
2.753956361E0,9.078156948E-1,-2.442826462E1,5.171844959E-1,2.445059757E1
2.758868652E0,4.421912432E-1,-2.643116951E1,-7.181233168E-1,2.644462055E1
2.763780944E0,-3.135745525E-1,-2.821140289E1,-1.920698166E0,2.827844875E1
2.768693288E0,-1.421183586E0,-2.971370888E1,-3.090744734E0,2.990780769E1
2.773605580E0,-2.651120186E0,-3.092372704E1,-4.158499718E0,3.131450865E1
2.778517871E0,-3.996437788E0,-3.196321869E1,-5.043602943E0,3.260455175E1
2.783430163E0,-5.284678459E0,-3.302502441E1,-5.540443897E0,3.390098203E1
2.788342455E0,-6.460062027E0,-3.392843628E1,-5.720479965E0,3.500850012E1
2.793254746E0,-7.547389030E0,-3.462402725E1,-5.762228489E0,3.590250160E1
2.798167038E0,-8.400962830E0,-3.515282440E1,-5.748165607E0,3.659697594E1
2.803079382E0,-9.090635300E0,-3.544570160E1,-5.636233330E0,3.702437762E1
2.807991673E0,-9.516570091E0,-3.554583740E1,-5.422719955E0,3.719512810E1
2.812903965E0,-9.593506813E0,-3.534561539E1,-5.240107536E0,3.699738676E1
2.817816257E0,-9.513549805E0,-3.469448853E1,-5.084740639E0,3.633276416E1
2.822728548E0,-9.269910812E0,-3.368579865E1,-4.986905098E0,3.529211667E1
2.827640840E0,-8.649858475E0,-3.240530396E1,-4.993906975E0,3.390962817E1
2.832553132E0,-7.801462650E0,-3.094321823E1,-4.914635658E0,3.228775647E1
2.837465423E0,-6.769492149E0,-2.931056976E1,-4.795222759E0,3.046193830E1
2.842377715E0,-5.557298660E0,-2.752047539E1,-4.524082661E0,2.843813387E1
2.847290059E0,-4.337811470E0,-2.559067535E1,-4.218766212E0,2.629633552E1
2.852202350E0,-3.020390511E0,-2.356983566E1,-3.823927402E0,2.406828479E1
2.857114642E0,-1.392187834E0,-2.138224983E1,-3.226484299E0,2.166907926E1
2.862026934E0,3.127181530E-1,-1.895246124E1,-2.387144327E0,1.910476479E1
2.866939225E0,1.953673005E0,-1.640622139E1,-1.409708261E0,1.658216560E1
2.871851517E0,3.504292488E0,-1.371656799E1,-5.029654503E-1,1.416606076E1
2.876763809E0,5.005088806E0,-1.079715538E1,4.137362242E-1,1.190800806E1
2.881676152E0,6.451085091E0,-7.760451317E0,1.445050240E0,1.019457079E1
2.886588444E0,7.756043434E0,-4.537405491E0,2.611963749E0,9.357703402E0
2.891500736E0,8.909798622E0,-1.018789291E0,3.722535372E0,9.709774081E0
2.896413027E0,9.920861244E0,2.789494514E0,4.682236195E0,1.131936850E1
2.901325319E0,1.090314102E1,6.898164749E0,5.453073025E0,1.400711128E1
2.906237611E0,1.185637665E1,1.086373615E1,6.055808544E0,1.718334215E1
2.911149902E0,1.289853096E1,1.441783428E1,6.496032715E0,2.040697154E1
2.916062194E0,1.400740910E1,1.732581902E1,6.810176373E0,2.329742510E1
2.920974486E0,1.492588615E1,1.963308144E1,6.897968292E0,2.560902050E1
2.925886830E0,1.525676060E1,2.149998283E1,6.782802105E0,2.722176354E1
2.930799121E0,1.518303871E1,2.300095367E1,6.641148567E0,2.834913383E1
2.935711413E0,1.475764847E1,2.397642899E1,6.454034805E0,2.888445777E1
2.940623705E0,1.395313835E1,2.448739815E1,6.268075943E0,2.887233129E1
2.945535996E0,1.287039280E1,2.462358475E1,6.310931206E0,2.849203028E1
2.950448288E0,1.167313766E1,2.439053345E1,6.788290501E0,2.787904505E1
2.955360632E0,1.044087791E1,2.378150940E1,7.534336090E0,2.704326795E1
2.960272923E0,9.223569870E0,2.294488144E1,8.482112885E0,2.614360466E1
2.965185215E0,8.096722603E0,2.200955963E1,9.384815216E0,2.525969890E1
2.970097507E0,7.107508659E0,2.099891281E1,1.002859879E1,2.433195044E1
2.975009798E0,6.308553696E0,1.976152611E1,1.046254730E1,2.323318015E1
2.979922090E0,5.587860584E0,1.833974838E1,1.080685711E1,2.200815115E1
2.984834382E0,4.898171425E0,1.674965286E1,1.095132351E1,2.060277751E1
2.989746673E0,4.180596828E0,1.520587921E1,1.087582016E1,1.915671205E1
2.994659017E0,3.570440292E0,1.367448139E1,1.050654602E1,1.761042289E1
2.999571309E0,3.009572029E0,1.214104748E1,9.847692490E0,1.591978659E1
3.004483600E0,2.473788977E0,1.058684158E1,8.921528816E0,1.406394408E1
3.009395892E0,1.950897574E0,9.110592842E0,7.744824409E0,1.211574217E1
3.014308184E0,1.431235552E0,7.753675461E0,6.463111877E0,1.019508379E1
3.019220475E0,9.217392206E-1,6.512047768E0,5.140400410E0,8.347459835E0
3.024132767E0,4.558322430E-1,5.348109245E0,3.891104221E0,6.629536001E0
3.029045059E0,1.100161672E-1,4.293570518E0,2.731633663E0,5.090056367E0
3.033957402E0,-1.274122894E-1,3.265126228E0,1.657547474E0,3.663979641E0
3.038869694E0,-3.133368790E-1,2.339554787E0,7.079899311E-1,2.464334868E0
3.043781986E0,-5.196420550E-1,1.504940987E0,-6.781482697E-2,1.593572744E0
3.048694277E0,-7.996234298E-1,7.898731232E-1,-6.201703548E-1,1.283708865E0
3.053606569E0,-1.123354316E0,1.510009766E-1,-1.030274034E0,1.531728043E0
3.058518861E0,-1.487393260E0,-3.785791397E-1,-1.288002014E0,2.003649187E0
3.063431152E0,-1.790376306E0,-8.567667007E-1,-1.454614639E0,2.460772286E0
3.068343496E0,-2.004936218E0,-1.257751465E0,-1.507482171E0,2.806102365E0
3.073255788E0,-2.153327942E0,-1.548586369E0,-1.514879823E0,3.054472433E0
3.078168080E0,-2.118449688E0,-1.865994930E0,-1.523725271E0,3.208037541E0
3.083080371E0,-1.976612329E0,-2.071508408E0,-1.533303857E0,3.247947675E0
3.087992663E0,-1.798805952E0,-2.210813999E0,-1.555188894E0,3.246846761E0
3.092904955E0,-1.500263810E0,-2.271963120E0,-1.661326647E0,3.189453581E0
3.097817246E0,-1.120395899E0,-2.216616631E0,-1.818782568E0,3.078416198E0
3.102729590E0,-7.798707485E-1,-2.145021439E0,-2.021410227E0,3.048838248E0
3.107641882E0,-5.083697438E-1,-2.071151257E0,-2.260999680E0,3.108090551E0
3.112554173E0,-2.880763113E-1,-2.042434692E0,-2.515050888E0,3.252692485E0
3.117466465E0,-9.400403500E-2,-2.017762661E0,-2.751750708E0,3.413551651E0
3.122378757E0,1.393730640E-1,-1.996834278E0,-2.941455841E0,3.557939636E0
3.127291048E0,2.646986842E-1,-1.953149319E0,-3.059087753E0,3.639076193E0
3.132203340E0,3.184259236E-1,-1.898549080E0,-3.177362442E0,3.715039134E0
3.137115684E0,3.632287383E-1,-1.804258823E0,-3.237259150E0,3.723859801E0
3.142027975E0,3.347308636E-1,-1.675072670E0,-3.234517574E0,3.657870574E0
3.146940267E0,2.231760025E-1,-1.554101944E0,-3.150063276E0,3.519650412E0
3.151852559E0,9.006309509E-2,-1.465329647E0,-2.954848051E0,3.299458947E0
3.156764850E0,-3.672870994E-2,-1.416010857E0,-2.645912886E0,3.001214878E0
3.161677142E0,-9.313055873E-2,-1.337020874E0,-2.282011509E0,2.646483449E0
3.166589434E0,-1.298627257E-1,-1.195257187E0,-1.835521221E0,2.194229301E0
3.171501777E0,-1.471560597E-1,-1.060462952E0,-1.386462331E0,1.751717549E0
3.176414069E0,1.765141487E-1,-1.002635002E0,-8.368449211E-1,1.317855688E0
3.181326361E0,6.990253329E-1,-1.051330566E0,6.510138512E-2,1.264187710E0
3.186238652E0,1.018575430E0,-1.204830170E0,1.195187330E0,1.979288862E0
3.191150944E0,6.170548201E-1,-8.319673538E-1,1.903466702E0,2.167051410E0
3.196063236E0,-2.325539589E-1,-6.907844543E-2,1.719989061E0,1.737013399E0
3.200975527E0,-7.445580959E-1,3.212738037E-1,1.227578640E0,1.471235172E0
3.205887871E0,-4.103408158E-1,-3.102684021E-2,9.886422157E-1,1.070866789E0
3.210800163E0,1.237078071E0,-8.412876129E-1,2.049862385E0,2.537727881E0
3.215712455E0,5.824491382E-1,-3.433818817E-1,2.222751856E0,2.323313136E0
3.220624746E0,-7.772561312E-1,6.518096924E-1,1.154805183E0,1.537061476E0
3.225537038E0,-9.223853946E-1,1.116169930E0,-7.266058922E-1,1.620057484E0
3.230449330E0,3.315187693E-1,7.915601730E-1,-4.948705435E-1,9.906407304E-1
3.235361621E0,9.535597563E-1,4.487609863E-1,1.690375805E-1,1.067350147E0
3.240273965E0,2.869852185E-1,5.066404343E-1,9.414386749E-2,5.898373615E-1
3.245186257E0,2.026661038E-1,5.174293518E-1,4.239273071E-2,5.573184255E-1
3.250098548E0,2.987986207E-1,4.068012238E-1,7.689666748E-2,5.105692400E-1
3.255010840E0,1.321780682E-1,3.971643448E-1,1.263334751E-1,4.372307233E-1
3.259923132E0,-1.330415010E-1,5.672998428E-1,1.286244392E-1,5.967188610E-1
3.264835423E0,-1.358813047E-1,7.136936188E-1,1.056034565E-1,7.341487591E-1
3.269747767E0,-7.268965244E-2,8.028898239E-1,7.175207138E-2,8.093603738E-1
3.274660059E0,4.952508211E-2,7.847089767E-1,3.924441338E-2,7.872490304E-1
3.279572350E0,3.961896896E-2,7.739667892E-1,1.556730270E-2,7.751365005E-1
3.284484642E0,-1.384991407E-2,7.896480560E-1,8.401632309E-3,7.898141933E-1
3.289396934E0,-4.395538568E-2,7.694082260E-1,3.745484352E-2,7.715723942E-1
3.294309225E0,-7.702779770E-2,7.060317993E-1,8.392143250E-2,7.151622124E-1
3.299221569E0,-9.620165825E-2,6.233949661E-1,6.442999840E-2,6.340562022E-1
3.304133861E0,-1.300375462E-1,5.549612045E-1,-4.111289978E-3,5.700075479E-1
3.309046152E0,-1.426759958E-1,5.006532669E-1,-5.687236786E-2,5.236836828E-1
3.313958444E0,-6.224387884E-2,4.174299240E-1,-8.201980591E-2,4.299410314E-1
3.318870736E0,1.522243023E-3,3.650503159E-1,-7.472300529E-2,3.726225676E-1
3.323783027E0,8.243125677E-2,3.386955261E-1,-1.259987354E-1,3.706551670E-1
3.328695319E0,8.484679461E-2,3.360223770E-1,-1.834816933E-1,3.921422550E-1
3.333607663E0,2.529984713E-2,3.667068481E-1,-2.596132755E-1,4.500144971E-1
3.338519955E0,-5.827230215E-2,3.470907211E-1,-2.995185852E-1,4.621460946E-1
3.343432246E0,-1.205748916E-1,2.892618179E-1,-3.225655556E-1,4.497324109E-1
3.348344538E0,-1.187006235E-1,2.601919174E-1,-2.808547020E-1,4.008354220E-1
3.353256830E0,-1.435633600E-1,2.692880630E-1,-1.931943893E-1,3.611794171E-1
3.358169121E0,-1.473266184E-1,2.588949203E-1,5.595970154E-2,3.030894265E-1
3.363081413E0,-2.044609189E-1,2.097139359E-1,3.787896633E-1,4.788170959E-1
3.367993757E0,-2.840939462E-1,1.240301132E-1,6.754980087E-1,7.432297081E-1
3.372906048E0,-3.457484245E-1,5.679702759E-2,8.819754124E-1,9.490250278E-1
3.377818340E0,-4.302567244E-1,4.137516022E-2,1.013117552E0,1.101471709E0
3.382730632E0,-4.251908660E-1,4.178524017E-2,1.145785809E0,1.222848477E0
3.387642923E0,-3.495667279E-1,4.850769043E-2,1.167406797E0,1.219585390E0
3.392555215E0,-2.390975952E-1,1.000013351E-1,1.086897612E0,1.117369386E0
3.397467559E0,-4.887067676E-1,2.859106064E-1,2.421731949E-1,6.158141244E-1
3.402379850E0,-7.793903947E-1,8.639907837E-1,-3.310977936E0,3.509487762E0
3.407292142E0,3.646684289E-1,4.367876053E-1,-2.012336731E0,2.091235423E0
3.412204434E0,1.165349483E0,1.590070724E-1,-4.779658318E-1,1.269556617E0
3.417116725E0,1.717958689E0,2.613649368E-1,1.834819317E-1,1.747386421E0
3.422029017E0,1.685511827E0,3.556976318E-1,4.265358448E-1,1.774655953E0
3.426941361E0,1.207693815E0,3.513250351E-1,5.435602665E-1,1.370186628E0
3.431853652E0,6.795928478E-1,3.347206116E-1,6.204848289E-1,9.792271185E-1
3.436765944E0,3.482546806E-1,3.825845718E-1,6.380395889E-1,8.214297257E-1
3.441678236E0,2.585080266E-1,4.159889221E-1,5.124881268E-1,7.088845204E-1
3.446590527E0,4.825364947E-1,3.204164505E-1,9.231162071E-2,5.865403702E-1
3.451502819E0,3.124892712E-2,4.861869812E-1,-4.371058941E-1,6.545348263E-1
3.456415163E0,-4.166410863E-1,6.167125702E-1,-6.243920326E-1,9.714883424E-1
3.461327455E0,-5.386925340E-1,5.639314651E-1,-6.855719090E-1,1.038372373E0
3.466239746E0,-4.400234222E-1,3.280668259E-1,-7.666517496E-1,9.428697469E-1
3.471152038E0,-1.698485017E-1,4.303550720E-2,-7.905429602E-1,8.097275716E-1
3.476064330E0,1.076503992E-1,-1.073141098E-1,-7.371995449E-1,7.527071779E-1
