"Time (s)","Linear Acceleration x (m/s^2)","Linear Acceleration y (m/s^2)","Linear Acceleration z (m/s^2)","Absolute acceleration (m/s^2)"
4.501314500E-2,0.000000000E0,0.000000000E0,0.000000000E0,0.000000000E0
4.992590600E-2,8.317124844E-2,-7.788085938E-2,2.219533920E-2,1.160840984E-1
5.483866600E-2,2.252842784E-1,-1.092405319E-1,4.390382767E-2,2.541929306E-1
5.975142600E-2,2.821823359E-1,9.814262390E-3,-1.862478256E-2,2.829665580E-1
6.466423900E-2,3.064575791E-1,6.322479248E-2,1.056828499E-1,3.302763796E-1
6.957699900E-2,2.500699759E-1,1.796083450E-1,-2.183818817E-2,3.086600993E-1
7.448976000E-2,1.596273184E-1,3.434658051E-1,-2.450318336E-1,4.510989243E-1
7.940252000E-2,6.227016449E-2,3.742065430E-1,-3.311710358E-1,5.035696229E-1
8.431533300E-2,-1.952077746E-1,4.158506393E-1,-4.275064468E-1,6.275345342E-1
8.922809300E-2,-3.011943698E-1,2.713165283E-1,-4.619801044E-1,6.146188444E-1
9.414085300E-2,-3.971083462E-1,1.107635498E-1,-5.390422344E-1,6.786237051E-1
9.905361400E-2,-3.927581310E-1,-1.309061050E-1,-5.906999111E-1,7.213333091E-1
1.039664260E-1,-4.477967322E-1,-2.916355133E-1,-6.747608185E-1,8.607411621E-1
1.088791870E-1,-4.095807374E-1,-4.857845306E-1,-6.200897694E-1,8.878368728E-1
1.137919470E-1,-4.027592242E-1,-6.483230591E-1,-4.653382301E-1,8.939113211E-1
1.187047080E-1,-3.713864088E-1,-6.839714050E-1,-2.992482185E-1,8.338430571E-1
1.236174680E-1,-3.613088429E-1,-6.702966690E-1,-2.237658501E-1,7.936704984E-1
1.285302810E-1,-3.571723104E-1,-5.647039413E-1,-1.872837543E-1,6.939292509E-1
1.334430410E-1,-4.068787992E-1,-4.322996140E-1,-3.034868240E-1,6.667365040E-1
1.383558010E-1,-1.936855614E-1,-4.000606537E-1,-6.313781738E-1,7.721405453E-1
1.432685620E-1,3.543602824E-1,-2.724838257E-1,-8.668725491E-1,9.753392545E-1
1.481813740E-1,3.255617619E-1,-2.541446686E-1,-4.210410118E-1,5.897927661E-1
1.530941350E-1,-2.042014599E-1,-3.137760162E-1,6.828022003E-2,3.805467291E-1
1.580068950E-1,-2.880746722E-1,-2.201843262E-1,8.175134659E-2,3.716872838E-1
1.629196560E-1,5.201852322E-2,-4.668045044E-2,-1.297135353E-1,1.473451474E-1
1.678324680E-1,2.242960036E-1,9.332656860E-2,-2.237095833E-1,3.302491836E-1
1.727452280E-1,1.464067698E-1,1.414031982E-1,-2.093086243E-1,2.919587418E-1
1.776579890E-1,2.794998884E-2,2.209720612E-1,-1.987750530E-1,2.985320341E-1
1.825707490E-1,-3.379583359E-2,2.802248001E-1,-2.055537701E-1,3.491710889E-1
1.874835100E-1,-1.183730960E-1,3.105268478E-1,-1.938076019E-1,3.847083306E-1
1.923963220E-1,-2.561518550E-1,2.314062119E-1,-2.395813465E-1,4.201926098E-1
1.973090830E-1,-3.438917696E-1,4.342174530E-2,-2.103645802E-1,4.054630116E-1
2.022218430E-1,-3.685250878E-1,-1.344394684E-1,-2.592697144E-1,4.702185617E-1
2.071346030E-1,-3.327367604E-1,-3.093843460E-1,-4.664030075E-1,6.511253264E-1
2.120474160E-1,-3.700433075E-1,-3.927679062E-1,-6.639661789E-1,8.555990675E-1
2.169601760E-1,-3.577984869E-1,-3.774366379E-1,-6.743731499E-1,8.516204073E-1
2.218729370E-1,-3.166289926E-1,-2.726888657E-1,-6.174421310E-1,7.455520918E-1
2.267856970E-1,-1.498332471E-1,-1.272153854E-1,-5.532758236E-1,5.871523594E-1
2.316985100E-1,3.008508682E-2,-4.907131195E-2,-5.147643089E-1,5.179723929E-1
2.366112700E-1,1.302464008E-1,-8.538055420E-2,-4.687571526E-1,4.939506372E-1
2.415240310E-1,2.070567310E-1,-1.608695984E-1,-5.021104813E-1,5.664507507E-1
2.464368430E-1,3.804570138E-1,-2.184343338E-1,-6.694650650E-1,8.004027554E-1
2.513496030E-1,6.709633470E-1,-2.934713364E-1,-8.184838295E-1,1.098286400E0
2.562623640E-1,8.553760648E-1,-3.994979858E-1,-9.056727886E-1,1.308246939E0
2.611751240E-1,8.800637722E-1,-4.186706543E-1,-9.283752441E-1,1.345985867E0
2.660878850E-1,8.385763168E-1,-3.830156326E-1,-9.569947720E-1,1.328815340E0
2.710006970E-1,7.754361629E-1,-2.606401443E-1,-1.039139628E0,1.322514913E0
2.759134580E-1,6.962237358E-1,-1.492195129E-1,-1.200113297E0,1.395444688E0
2.808262180E-1,5.655364990E-1,-1.141128540E-1,-1.278953671E0,1.403059432E0
2.857390310E-1,5.429572463E-1,-2.265491486E-1,-1.239633560E0,1.372158319E0
2.906517910E-1,4.436620772E-1,-2.773485184E-1,-1.260105729E0,1.364413679E0
2.955645510E-1,1.071581542E-1,-2.984428406E-1,-1.115663052E0,1.159851302E0
3.004773120E-1,-1.882479191E-1,-1.659641266E-1,-1.048679709E0,1.078290547E0
3.053900720E-1,-2.093539536E-1,1.010322571E-1,-1.184970975E0,1.207556544E0
3.103028850E-1,-1.471280754E-1,2.393703461E-1,-1.243554950E0,1.274901465E0
3.152156450E-1,-5.289047956E-3,1.571769714E-1,-1.105260253E0,1.116392763E0
3.201284060E-1,1.019151211E-1,-1.731300354E-2,-9.113539457E-1,9.171981500E-1
3.250412180E-1,-3.977437615E-1,-8.752059937E-2,-6.758660078E-1,7.890847962E-1
3.299539780E-1,-2.018860281E-1,-2.719984055E-1,-4.550898075E-1,5.673163437E-1
3.348667390E-1,-2.210616767E-1,-3.807172775E-1,-3.376747370E-1,5.548316306E-1
3.397794990E-1,-2.324430048E-1,-2.666025162E-1,-3.101706505E-1,4.704386087E-1
3.446923120E-1,-2.710351348E-1,-6.966400146E-2,-4.070066214E-1,4.939306705E-1
3.496050720E-1,-1.584980488E-1,7.231712341E-2,-5.419985056E-1,5.693099137E-1
3.545178330E-1,4.771170616E-1,1.272602081E-1,-3.614674807E-1,6.119596315E-1
3.594305930E-1,1.790216565E-1,1.983318329E-1,2.746114731E-1,3.831393096E-1
3.643434060E-1,-2.283878028E-1,4.412631989E-1,-2.686408758E-1,5.648381355E-1
3.692561660E-1,4.431041479E-1,7.707548141E-1,-1.008908272E0,1.344730520E0
3.741689260E-1,1.151894331E0,6.500673294E-1,-1.007275224E0,1.662543671E0
3.790817390E-1,1.495088577E0,4.608469009E-1,-6.832340956E-1,1.707184392E0
3.839944990E-1,1.451357841E0,6.688871384E-1,-4.589928389E-1,1.662685783E0
3.889072600E-1,1.256401539E0,1.101037025E0,-2.995948792E-1,1.697228461E0
3.938200200E-1,1.065015078E0,1.442747116E0,-2.394709587E-1,1.809177354E0
3.987328330E-1,8.788229227E-1,1.697823524E0,-1.877065897E-1,1.920981055E0
4.036455930E-1,6.850115657E-1,1.869940758E0,-1.252232790E-1,1.995394736E0
4.085583530E-1,4.117381573E-1,1.934225082E0,-2.791905403E-2,1.977759958E0
4.134711140E-1,5.661916733E-2,1.899093628E0,1.235461235E-1,1.903950100E0
4.183839260E-1,-2.619700432E-1,1.874361038E0,3.082389832E-1,1.917516330E0
4.232966870E-1,-5.476336479E-1,1.954243660E0,5.315577984E-1,2.097981074E0
4.282094470E-1,-6.645148993E-1,2.144307137E0,8.510696888E-1,2.400823351E0
4.331222080E-1,-6.501465440E-1,2.414552689E0,1.236282825E0,2.789471355E0
4.380350200E-1,-5.742998719E-1,2.685757637E0,1.652144432E0,3.205104624E0
4.429477810E-1,-3.921815157E-1,3.042900085E0,1.976199150E0,3.649439731E0
4.478605410E-1,-1.465893984E-1,3.409189224E0,2.162783146E0,4.040011207E0
4.527733530E-1,1.155083776E-1,3.739589691E0,2.277508736E0,4.380059279E0
4.576861140E-1,3.001225591E-1,4.117462158E0,2.330339432E0,4.740680335E0
4.625988740E-1,4.042170048E-1,4.492808342E0,2.330642223E0,5.077461113E0
4.675116350E-1,4.769908786E-1,4.877831459E0,2.201965094E0,5.373026178E0
4.724244470E-1,5.599855185E-1,5.256253242E0,1.986689806E0,5.647009679E0
4.773372080E-1,7.605125308E-1,5.609645844E0,1.863776445E0,5.959879901E0
4.822499680E-1,9.264066815E-1,5.834502220E0,1.709742904E0,6.150029780E0
4.871627810E-1,9.399188161E-1,5.979895592E0,1.592170715E0,6.259201727E0
4.920755410E-1,8.686936498E-1,6.063462257E0,1.597477317E0,6.330255681E0
4.969883010E-1,6.893827915E-1,6.194906235E0,1.698023438E0,6.460293762E0
5.019011140E-1,4.263144135E-1,6.300258636E0,1.879099488E0,6.588324351E0
5.068138740E-1,2.524946332E-1,6.320481300E0,2.126554012E0,6.673415121E0
5.117266350E-1,9.857296944E-3,6.211175919E0,2.505476475E0,6.697478318E0
5.166393950E-1,-2.209568024E-1,6.042035103E0,2.907587290E0,6.708880230E0
5.215522080E-1,-4.123028219E-1,5.917533875E0,3.368104458E0,6.821387572E0
5.264649680E-1,-5.225890875E-1,5.827335358E0,3.803433418E0,6.978326626E0
5.313777280E-1,-6.765652895E-1,5.678321838E0,4.206305504E0,7.098879171E0
5.362904890E-1,-8.486008644E-1,5.503992081E0,4.514554977E0,7.169048674E0
5.412033010E-1,-9.277399778E-1,5.299691200E0,4.718231201E0,7.156055754E0
5.461160620E-1,-9.296612740E-1,5.044265747E0,4.792893410E0,7.020022382E0
5.510288220E-1,-8.713629842E-1,4.785621643E0,4.773116112E0,6.814989756E0
5.559416350E-1,-8.269358277E-1,4.471698761E0,4.695193291E0,6.536417422E0
5.608543950E-1,-7.538664341E-1,4.117415428E0,4.592319965E0,6.213761105E0
5.657671560E-1,-7.092334032E-1,3.723391533E0,4.392543793E0,5.801818465E0
5.706799160E-1,-6.024119258E-1,3.304485321E0,4.181048393E0,5.363179004E0
5.755927280E-1,-3.573794663E-1,2.849290848E0,4.006803036E0,4.929568844E0
5.805054890E-1,-5.760356784E-2,2.391576767E0,3.813849926E0,4.502044964E0
5.854182490E-1,2.263315320E-1,1.948202133E0,3.636853933E0,4.132000006E0
5.903310620E-1,4.908092022E-1,1.457533836E0,3.522201538E0,3.843332178E0
5.952438220E-1,7.272859812E-1,1.010333061E0,3.323544979E0,3.549037760E0
6.001565830E-1,8.765815496E-1,5.256938934E-1,2.971537113E0,3.142416602E0
6.050693950E-1,9.344375134E-1,-7.791519165E-3,2.634560585E0,2.795378982E0
6.099821560E-1,1.029786825E0,-5.825052261E-1,2.275575161E0,2.564764230E0
6.148949160E-1,1.110048771E0,-1.167261124E0,1.996021986E0,2.564919214E0
6.198077280E-1,1.196907043E0,-1.719288826E0,1.780302405E0,2.749184823E0
6.247204890E-1,1.231179118E0,-2.241313934E0,1.541892290E0,2.986088078E0
6.296332490E-1,1.289607048E0,-2.785883904E0,1.356383085E0,3.356189884E0
6.345460100E-1,1.272161722E0,-3.386163235E0,1.137429714E0,3.791865406E0
6.394588220E-1,1.273681641E0,-4.077480316E0,9.276680946E-1,4.371347475E0
6.443715830E-1,1.326226592E0,-4.932936668E0,7.769629955E-1,5.166857134E0
6.492843430E-1,1.350200176E0,-5.870726109E0,7.187228799E-1,6.066714773E0
6.541971560E-1,1.316239119E0,-6.833480358E0,8.173336983E-1,7.006923262E0
6.591099160E-1,1.226386905E0,-7.709630013E0,9.655538201E-1,7.866048179E0
6.640226760E-1,1.154229760E0,-8.533313751E0,1.080428123E0,8.678537598E0
6.689354890E-1,1.071145773E0,-9.411977768E0,1.176547170E0,9.545519473E0
6.738482490E-1,1.027261734E0,-1.036908913E1,1.201469064E0,1.048888955E1
6.787610100E-1,9.679439068E-1,-1.133054924E1,1.093087912E0,1.142423313E1
6.836738220E-1,8.479917049E-1,-1.226804733E1,7.750252485E-1,1.232171820E1
6.885865830E-1,6.483733058E-1,-1.307040977E1,3.016437292E-1,1.308995755E1
6.934993430E-1,3.307803273E-1,-1.370342445E1,-2.614604831E-1,1.370990952E1
6.984121030E-1,1.428687572E-2,-1.414739704E1,-8.444923759E-1,1.417258673E1
7.033249160E-1,-2.016494274E-1,-1.451819420E1,-1.380195141E0,1.458504590E1
7.082376760E-1,-3.840416670E-1,-1.484280014E1,-1.803555012E0,1.495690525E1
7.131504370E-1,-5.233696699E-1,-1.515744019E1,-2.094506502E0,1.531041692E1
7.180632490E-1,-6.527850628E-1,-1.538388252E1,-2.256234169E0,1.556215160E1
7.229760100E-1,-7.836260796E-1,-1.557743263E1,-2.298555136E0,1.576559016E1
7.278887700E-1,-8.819653988E-1,-1.576439571E1,-2.226341248E0,1.594523849E1
7.328015830E-1,-1.016384721E0,-1.587817001E1,-2.066211700E0,1.604426850E1
7.377143430E-1,-1.184159398E0,-1.598102760E1,-2.034949064E0,1.615352885E1
7.426271030E-1,-1.416476130E0,-1.612062836E1,-2.067584753E0,1.631428730E1
7.475399160E-1,-1.673405409E0,-1.617554283E1,-2.066247225E0,1.639261569E1
7.524526760E-1,-2.001340866E0,-1.613693428E1,-1.933241129E0,1.637508579E1
7.573654370E-1,-2.353885174E0,-1.594132233E1,-1.716073632E0,1.620529054E1
7.622782490E-1,-2.656542301E0,-1.558746815E1,-1.395028472E0,1.587364119E1
7.671910100E-1,-2.763450861E0,-1.523332310E1,-9.525766373E-1,1.551122805E1
7.721037700E-1,-2.636014700E0,-1.486917591E1,-3.735198081E-1,1.510564407E1
7.770165830E-1,-2.437838078E0,-1.453767204E1,2.361425906E-1,1.474254816E1
7.819293430E-1,-2.348156452E0,-1.416707230E1,8.094521165E-1,1.438314948E1
7.868421030E-1,-2.276397705E0,-1.371473694E1,1.420014024E0,1.397470700E1
7.917548640E-1,-2.174821138E0,-1.310492134E1,2.123968124E0,1.345288263E1
7.966676760E-1,-2.007677555E0,-1.225045300E1,2.696195126E0,1.270330020E1
8.015804370E-1,-1.913063288E0,-1.124073792E1,3.107766867E0,1.181830000E1
8.064932490E-1,-1.790374637E0,-1.025500774E1,3.369812965E0,1.094194976E1
8.114060100E-1,-1.622861385E0,-9.254860878E0,3.564525127E0,1.004947602E1
8.163187700E-1,-1.393642664E0,-8.168768883E0,3.735416412E0,9.089794316E0
8.212315830E-1,-1.155027390E0,-6.906608105E0,3.813850880E0,7.973755847E0
8.261443430E-1,-8.663430214E-1,-5.431141853E0,3.836243629E0,6.705566139E0
8.310571030E-1,-4.774583578E-1,-3.909883976E0,3.821954727E0,5.488396590E0
8.359699160E-1,-1.169781685E-1,-2.418839931E0,3.699553013E0,4.421669707E0
8.408826760E-1,2.871434689E-1,-8.954696655E-1,3.457005978E0,3.582625800E0
8.457954370E-1,7.757530212E-1,6.201200485E-1,3.110842228E0,3.265529205E0
8.507081970E-1,1.421105504E0,2.178558350E0,2.720249414E0,3.763696881E0
8.556210100E-1,2.226195097E0,3.813458920E0,2.339444399E0,4.997140546E0
8.605337700E-1,3.084640980E0,5.565276623E0,2.117682695E0,6.706108697E0
8.654465830E-1,3.971799135E0,7.297960281E0,1.994330645E0,8.544750866E0
8.703593430E-1,4.844381332E0,9.111731529E0,1.956681967E0,1.050334643E1
8.752721030E-1,5.745264530E0,1.098951530E1,1.944005847E0,1.255215798E1
8.801849160E-1,6.653077602E0,1.277622890E1,1.692973256E0,1.450384863E1
8.850976760E-1,7.567957878E0,1.437707520E1,1.331772804E0,1.630177587E1
8.900104370E-1,8.390008926E0,1.576897240E1,9.596512318E-1,1.788780788E1
8.949232490E-1,8.924177170E0,1.706922913E1,7.068245411E-1,1.927431249E1
8.998360100E-1,9.228180885E0,1.838252258E1,5.292928219E-1,2.057563146E1
9.047487700E-1,9.287143707E0,1.950113487E1,4.075061083E-1,2.160350344E1
9.096615830E-1,9.207332611E0,2.040184784E1,3.295886517E-1,2.238568734E1
9.145743430E-1,8.967743874E0,2.101637268E1,3.009551764E-1,2.285167226E1
9.194871030E-1,8.637310982E0,2.143401718E1,3.464124203E-1,2.311147410E1
9.243999160E-1,8.179575920E0,2.163648033E1,4.887323380E-1,2.313615358E1
9.293126760E-1,7.679542065E0,2.167221451E1,7.699236870E-1,2.300550001E1
9.342254370E-1,7.076466560E0,2.157031631E1,1.151183128E0,2.273059936E1
9.391382490E-1,6.440880775E0,2.124072456E1,1.519920349E0,2.224777479E1
9.440510100E-1,5.799964905E0,2.074396896E1,1.823312283E0,2.161657487E1
9.489637700E-1,5.271516323E0,2.003315353E1,2.084539890E0,2.081973658E1
9.538765830E-1,4.773080826E0,1.924979782E1,2.321420431E0,1.996812484E1
9.587893430E-1,4.327564240E0,1.837285423E1,2.565465450E0,1.904917840E1
9.637021030E-1,3.905487061E0,1.745286942E1,2.728756905E0,1.809147850E1
9.686149160E-1,3.527685404E0,1.648781967E1,2.861604214E0,1.710209170E1
9.735276760E-1,3.193443298E0,1.549481297E1,2.928090572E0,1.608915857E1
9.784404370E-1,2.869045258E0,1.442181778E1,2.904217958E0,1.498848660E1
9.833532490E-1,2.587451220E0,1.338623428E1,2.896962166E0,1.393838448E1
9.882660100E-1,2.264744282E0,1.232864857E1,2.829197407E0,1.285025292E1
9.931787700E-1,1.945804834E0,1.126378059E1,2.767244101E0,1.176080565E1
9.980915830E-1,1.558401823E0,1.022294807E1,2.684221745E0,1.068374138E1
1.003004343E0,1.252506733E0,9.225327492E0,2.612999916E0,9.669705735E0
1.007917156E0,9.726024270E-1,8.209032059E0,2.478910208E0,8.630130859E0
1.012829916E0,6.868630052E-1,7.200601578E0,2.353089809E0,7.606410160E0
1.017742676E0,4.067985415E-1,6.271633148E0,2.223039150E0,6.666391112E0
1.022655489E0,1.870132089E-1,5.459945679E0,2.143285275E0,5.868530695E0
1.027568249E0,4.393184185E-2,4.741179466E0,2.168273449E0,5.213647714E0
1.032481010E0,-1.088137031E-1,4.110161781E0,2.259397507E0,4.691497350E0
1.037393822E0,-3.192549348E-1,3.511752129E0,2.316143751E0,4.218868166E0
1.042306583E0,-5.639132261E-1,2.900637627E0,2.335934162E0,3.766734020E0
1.047219343E0,-8.123822212E-1,2.365129471E0,2.399568796E0,3.465794670E0
1.052132156E0,-9.960676432E-1,1.811993599E0,2.542347431E0,3.277041656E0
1.057044916E0,-1.062987804E0,1.291328430E0,2.711564064E0,3.185914603E0
1.061957728E0,-9.966223836E-1,7.791042328E-1,2.998095989E0,3.254049653E0
1.066870489E0,-8.376510143E-1,2.776432037E-1,3.332689047E0,3.447544235E0
1.071783249E0,-6.504126787E-1,-1.773176193E-1,3.538644791E0,3.602288876E0
1.076696010E0,-4.443486631E-1,-6.335563660E-1,3.601612568E0,3.683809508E0
1.081608822E0,-2.765028477E-1,-1.098115921E0,3.547621250E0,3.723966828E0
1.086521583E0,-1.038668007E-1,-1.535135269E0,3.450030804E0,3.777584037E0
1.091434395E0,2.359659970E-2,-1.944706917E0,3.331983328E0,3.858050633E0
1.096347156E0,1.586817056E-1,-2.336475372E0,3.123214960E0,3.903686557E0
1.101259916E0,3.278853595E-1,-2.662884712E0,2.841837883E0,3.908261295E0
1.106172728E0,4.860744178E-1,-3.007713318E0,2.567921877E0,3.984574069E0
1.111085489E0,6.645553112E-1,-3.363840580E0,2.417511463E0,4.195404496E0
1.115998301E0,8.636665344E-1,-3.714661598E0,2.428100109E0,4.521095090E0
1.120911062E0,1.052538753E0,-4.076993942E0,2.537569761E0,4.916195452E0
1.125823822E0,1.190782785E0,-4.443715096E0,2.684685707E0,5.326547178E0
1.130736635E0,1.257179976E0,-4.862508774E0,2.805883408E0,5.753040480E0
1.135649395E0,1.414236307E0,-5.397495270E0,2.782913208E0,6.235192494E0
1.140562156E0,1.653021455E0,-5.967083454E0,2.664189816E0,6.740658147E0
1.145474968E0,1.928839087E0,-6.566355705E0,2.385035992E0,7.247471570E0
1.150387728E0,2.240005016E0,-7.252476215E0,2.008857727E0,7.851849661E0
1.155300489E0,2.522742033E0,-7.956096172E0,1.586714625E0,8.495961215E0
1.160213301E0,2.598232508E0,-8.589214325E0,1.198055267E0,9.053217732E0
1.165126062E0,2.499534369E0,-9.221638680E0,9.627931714E-1,9.602773698E0
1.170038874E0,2.591367006E0,-1.007293510E1,9.323320985E-1,1.044262648E1
1.174951635E0,2.815988541E0,-1.103494549E1,1.027865648E0,1.143487303E1
1.179864395E0,3.006514311E0,-1.207621574E1,1.197070599E0,1.250228351E1
1.184777208E0,3.081895590E0,-1.307252979E1,1.323167682E0,1.349592117E1
1.189689968E0,3.027539253E0,-1.410055542E1,1.201237917E0,1.447185647E1
1.194602728E0,2.904649019E0,-1.517954254E1,8.771825433E-1,1.547982387E1
1.199515541E0,2.704884529E0,-1.625254440E1,5.055338144E-1,1.648384556E1
1.204428301E0,2.419936180E0,-1.715565109E1,5.876159668E-2,1.732558537E1
1.209341114E0,2.048817158E0,-1.795446014E1,-4.925143719E-1,1.807768960E1
1.214253874E0,1.614704609E0,-1.859970474E1,-9.980117083E-1,1.869631822E1
1.219166635E0,1.172386646E0,-1.922808075E1,-1.386231184E0,1.931360186E1
1.224079447E0,6.456325054E-1,-1.975862885E1,-1.652438283E0,1.983811502E1
1.228992208E0,1.299395561E-1,-2.025605965E1,-1.765057564E0,2.033323056E1
1.233905020E0,-3.556133509E-1,-2.069173622E1,-1.723470807E0,2.076643350E1
1.238817781E0,-8.899724483E-1,-2.103237534E1,-1.476975322E0,2.110294575E1
1.243730541E0,-1.313485265E0,-2.132112885E1,-1.234840989E0,2.139721036E1
1.248643353E0,-1.684304833E0,-2.168213272E1,-1.055704474E0,2.177306304E1
1.253556114E0,-1.972425222E0,-2.199358177E1,-9.508254528E-1,2.210231141E1
1.258468874E0,-2.241135120E0,-2.222721863E1,-9.364100695E-1,2.235953484E1
1.263381687E0,-2.519784451E0,-2.235723877E1,-9.525051117E-1,2.251894103E1
1.268294447E0,-2.722863913E0,-2.227916336E1,-9.131410122E-1,2.246350227E1
1.273207260E0,-2.781548738E0,-2.206768417E1,-8.711566925E-1,2.225934887E1
1.278120020E0,-2.760443449E0,-2.167784882E1,-8.554179668E-1,2.186963459E1
1.283032781E0,-2.628199577E0,-2.120072556E1,-8.783615232E-1,2.138105975E1
1.287945593E0,-2.377514362E0,-2.063877106E1,-8.976840973E-1,2.079464551E1
1.292858353E0,-2.170620918E0,-1.994192123E1,-8.782652617E-1,2.007892347E1
1.297771114E0,-1.921311855E0,-1.909602356E1,-7.848117352E-1,1.920847429E1
1.302683926E0,-1.646381378E0,-1.820853424E1,-5.984066725E-1,1.829260455E1
1.307596687E0,-1.271546960E0,-1.732673836E1,-3.187896013E-1,1.737625738E1
1.312509499E0,-7.820130587E-1,-1.642850876E1,3.036132455E-2,1.644713854E1
1.317422260E0,-1.436471939E-1,-1.550131607E1,3.250223398E-1,1.550538855E1
1.322335020E0,3.793182373E-1,-1.446116447E1,5.512809157E-1,1.447663880E1
1.327247833E0,7.427760959E-1,-1.327455044E1,8.578258753E-1,1.332296029E1
1.332160593E0,9.932252169E-1,-1.196779251E1,1.230821609E0,1.207184641E1
1.337073406E0,1.250763416E0,-1.054333496E1,1.563330173E0,1.073174368E1
1.341986166E0,1.508125424E0,-9.087168694E0,1.789023161E0,9.383585724E0
1.346898926E0,1.693392515E0,-7.656366348E0,1.772473812E0,8.039228028E0
1.351811739E0,1.894484997E0,-6.078853130E0,1.817700982E0,6.621598421E0
1.356724499E0,2.113337994E0,-4.221387863E0,2.166145325E0,5.194083031E0
1.361637260E0,2.287467957E0,-2.082552910E0,2.763442755E0,4.148029910E0
1.366550072E0,2.498212576E0,4.486408234E-1,3.520110130E0,4.339760361E0
1.371462833E0,2.710407019E0,3.306162834E0,4.322982788E0,6.079901239E0
1.376375645E0,3.037759781E0,6.376553059E0,4.900897503E0,8.596930250E0
1.381288406E0,3.379646540E0,9.530065536E0,5.405133724E0,1.146558461E1
1.386201166E0,3.551806688E0,1.262796974E1,5.835284233E0,1.435728013E1
1.391113978E0,3.627449512E0,1.579204178E1,6.193114281E0,1.734651660E1
1.396026739E0,3.772655010E0,1.895275879E1,6.664175034E0,2.044140945E1
1.400939551E0,4.148047447E0,2.204290771E1,7.560819626E0,2.366985576E1
1.405852312E0,4.538492203E0,2.503093338E1,8.832820892E0,2.692887414E1
1.410765124E0,4.912933826E0,2.786840057E1,1.034734726E1,3.013058686E1
1.415677885E0,5.326505184E0,3.051390076E1,1.188656616E1,3.317770715E1
1.420590645E0,5.810524940E0,3.297369385E1,1.339099979E1,3.606030451E1
1.425503458E0,6.232069969E0,3.508710480E1,1.459078217E1,3.850759072E1
1.430416218E0,6.650066376E0,3.674908066E1,1.545009708E1,4.041563821E1
1.435328978E0,7.070781231E0,3.781912231E1,1.612170410E1,4.171560024E1
1.440241791E0,7.292219639E0,3.829092407E1,1.673892403E1,4.242125542E1
1.445154551E0,7.124430180E0,3.838715744E1,1.707728004E1,4.261413915E1
1.450067364E0,6.818246365E0,3.824637985E1,1.725461769E1,4.250877423E1
1.454980124E0,6.503309250E0,3.771607971E1,1.725441742E1,4.198226555E1
1.459892885E0,6.106152058E0,3.668289948E1,1.687836456E1,4.083869975E1
1.464805697E0,5.799415588E0,3.521566010E1,1.618353462E1,3.918778802E1
1.469718458E0,5.614356041E0,3.342164993E1,1.525228119E1,3.716395780E1
1.474631270E0,5.326838970E0,3.141290665E1,1.415196419E1,3.486293172E1
1.479544031E0,5.232483864E0,2.925350761E1,1.305434704E1,3.245862862E1
1.484456843E0,5.369652271E0,2.695239258E1,1.212342644E1,3.003734509E1
1.489369603E0,5.429135323E0,2.458326149E1,1.099666500E1,2.747251166E1
1.494282364E0,5.358280182E0,2.208182144E1,9.606406212E0,2.466984080E1
1.499195176E0,5.254927158E0,1.948909187E1,8.137039185E0,2.176351001E1
1.504107937E0,4.970105171E0,1.686715698E1,6.800809860E0,1.885348628E1
1.509020749E0,4.596113205E0,1.436821365E1,5.684908867E0,1.612104243E1
1.513933510E0,4.391674995E0,1.198843956E1,4.785545349E0,1.363491608E1
1.518846270E0,4.342350006E0,9.742552757E0,4.156941414E0,1.144786005E1
1.523759083E0,4.292930126E0,7.539655685E0,3.883128166E0,9.505490060E0
1.528671843E0,4.137650967E0,5.405659676E0,4.059239388E0,7.925827178E0
1.533584656E0,3.825088978E0,3.373229027E0,4.593738079E0,6.863847995E0
1.538497416E0,3.439437389E0,1.415197372E0,5.360788345E0,6.524612237E0
1.543410176E0,3.002621889E0,-5.981569290E-1,6.238489151E0,6.949264480E0
1.548322989E0,2.404547930E0,-2.664788246E0,7.201152325E0,8.046088612E0
1.553235749E0,1.779115200E0,-4.792129040E0,8.166099548E0,9.634050730E0
1.558148562E0,1.276986241E0,-6.908712864E0,8.959916115E0,1.138600475E1
1.563061322E0,9.796970487E-1,-9.067244530E0,9.640626907E0,1.327088606E1
1.567974083E0,9.553168416E-1,-1.126758099E1,9.945262909E0,1.505919207E1
1.572886895E0,1.110185146E0,-1.349746132E1,9.783912659E0,1.670745103E1
1.577799656E0,1.514175534E0,-1.581138325E1,9.048426628E0,1.828022407E1
1.582712468E0,2.091956854E0,-1.818494034E1,7.801748276E0,1.989813094E1
1.587625228E0,2.754455090E0,-2.050562286E1,6.286714554E0,2.162383804E1
1.592538041E0,3.194249630E0,-2.266166306E1,4.453553200E0,2.331498100E1
1.597450801E0,3.292146444E0,-2.471392441E1,2.295367718E0,2.503767163E1
1.602363562E0,3.315796852E0,-2.676878357E1,1.277157068E-1,2.697366482E1
1.607276374E0,3.223739386E0,-2.884424400E1,-1.824368477E0,2.908111463E1
1.612189135E0,2.914133310E0,-3.082482147E1,-3.480903625E0,3.115731827E1
1.617101947E0,2.273491144E0,-3.266452789E1,-4.652946472E0,3.307249696E1
1.622014708E0,1.463269234E0,-3.419071960E1,-5.264655590E0,3.462460198E1
1.626927468E0,5.725938082E-1,-3.535982513E1,-5.257401466E0,3.575311689E1
1.631840281E0,-3.695850372E-1,-3.631184769E1,-4.740770340E0,3.662187569E1
1.636753041E0,-1.258464932E0,-3.713858032E1,-4.026723862E0,3.737743152E1
1.641665853E0,-1.879079938E0,-3.779775238E1,-3.298042774E0,3.798786797E1
1.646578614E0,-2.154655933E0,-3.827099609E1,-2.554236412E0,3.841660849E1
1.651491426E0,-2.079089880E0,-3.853741455E1,-1.938882470E0,3.864212986E1
1.656404187E0,-1.699955225E0,-3.852346802E1,-1.565243244E0,3.859271204E1
1.661316947E0,-1.241529465E0,-3.812012482E1,-1.673748374E0,3.817704474E1
1.666229760E0,-8.418724537E-1,-3.730239487E1,-2.118402958E0,3.737198206E1
1.671142520E0,-4.713456631E-1,-3.627445602E1,-2.775834560E0,3.638356200E1
1.676055333E0,-9.549903870E-2,-3.512523651E1,-3.570977688E0,3.530641927E1
1.680968093E0,1.911350489E-1,-3.386224365E1,-4.467833996E0,3.415625299E1
1.685880853E0,4.478088617E-1,-3.252378464E1,-5.232687950E0,3.294507737E1
1.690793666E0,6.551871300E-1,-3.109292221E1,-5.749149323E0,3.162675765E1
1.695706426E0,6.358858943E-1,-2.954550934E1,-5.926914692E0,3.014083261E1
1.700619239E0,5.132597685E-1,-2.783105659E1,-5.713441372E0,2.841609683E1
1.705531999E0,4.672652483E-1,-2.600400543E1,-5.158222198E0,2.651478628E1
1.710444812E0,5.962163806E-1,-2.430690384E1,-4.440932751E0,2.471645063E1
1.715357572E0,7.215492725E-1,-2.280704117E1,-3.429457188E0,2.307472506E1
1.720270385E0,6.958954334E-1,-2.125399780E1,-2.041308880E0,2.136313729E1
1.725183145E0,3.759780526E-1,-1.946741104E1,-3.240525723E-1,1.947373776E1
1.730095906E0,-1.911868453E-1,-1.736320496E1,1.611569881E0,1.743888174E1
1.735008718E0,-6.731337905E-1,-1.483883095E1,3.658627748E0,1.529802504E1
1.739921478E0,-6.874009967E-1,-1.199052143E1,5.689086914E0,1.328950090E1
1.744834291E0,-8.688127995E-2,-9.043412209E0,7.210904598E0,1.156667618E1
1.749747051E0,8.326243758E-1,-6.052704811E0,8.086534500E0,1.013511416E1
1.754659812E0,1.924560308E0,-2.956530094E0,8.746875763E0,9.431481230E0
1.759572624E0,3.260885715E0,4.335050583E-1,9.354564667E0,9.916107220E0
1.764485385E0,4.541311264E0,4.221841812E0,9.837044716E0,1.162819440E1
1.769398197E0,5.477941513E0,8.340696335E0,1.028968430E1,1.433361997E1
1.774310958E0,6.286910057E0,1.275808525E1,1.082303905E1,1.787266493E1
1.779223770E0,6.807463646E0,1.714836884E1,1.168669128E1,2.184002903E1
1.784136531E0,7.080978394E0,2.140155983E1,1.278913212E1,2.591773367E1
1.789049343E0,7.786471844E0,2.548144150E1,1.396698761E1,3.008337992E1
1.793962103E0,8.933605194E0,2.916967010E1,1.542421722E1,3.418457887E1
1.798874864E0,9.992186546E0,3.221229935E1,1.673165131E1,3.764869422E1
1.803787676E0,1.090072823E1,3.480476379E1,1.760659599E1,4.049925531E1
1.808700437E0,1.143301582E1,3.705817413E1,1.812279320E1,4.280721615E1
1.813613249E0,1.136712837E1,3.917880630E1,1.845879745E1,4.477630707E1
1.818526010E0,1.103845119E1,4.121032715E1,1.852996063E1,4.651341645E1
1.823438822E0,1.078149605E1,4.283834076E1,1.827546692E1,4.780540542E1
1.828351583E0,1.089200211E1,4.381629944E1,1.783996201E1,4.854655550E1
1.833264343E0,1.120753384E1,4.426383591E1,1.721213531E1,4.879706534E1
1.838177156E0,1.153845978E1,4.432234955E1,1.624835205E1,4.859645736E1
1.843089916E0,1.172918129E1,4.383054352E1,1.500709343E1,4.779019870E1
1.848002728E0,1.174181557E1,4.279778671E1,1.357440758E1,4.640889270E1
1.852915489E0,1.186865425E1,4.136515045E1,1.226724434E1,4.474847382E1
1.857828301E0,1.224455547E1,3.951587296E1,1.113164520E1,4.284094862E1
1.862741062E0,1.274511719E1,3.740276718E1,1.000543213E1,4.076166921E1
1.867653874E0,1.347718620E1,3.505401611E1,8.840829849E0,3.858210552E1
1.872566635E0,1.417987728E1,3.246210098E1,7.677663326E0,3.624642650E1
1.877479395E0,1.448218727E1,2.973700333E1,6.351432323E0,3.368031781E1
1.882392208E0,1.416021919E1,2.694357300E1,4.667951584E0,3.079379329E1
1.887304968E0,1.347140312E1,2.423727036E1,2.939218998E0,2.788481638E1
1.892217781E0,1.255235195E1,2.150773239E1,1.481294870E0,2.494670974E1
1.897130541E0,1.122257710E1,1.875910568E1,3.738677502E-1,2.186298378E1
1.902043353E0,9.866914749E0,1.613813972E1,-2.012771368E-1,1.891655552E1
1.906956114E0,8.403274536E0,1.357076263E1,7.850134373E-2,1.596204197E1
1.911868874E0,6.857280731E0,1.100162792E1,1.220326900E0,1.302103351E1
1.916781687E0,5.347543240E0,8.437340736E0,2.992399216E0,1.042781811E1
1.921694447E0,3.990052700E0,5.874897003E0,5.233992577E0,8.822109364E0
1.926607260E0,2.704699278E0,3.299446106E0,7.599003315E0,8.714734314E0
1.931520020E0,1.432762623E0,7.298278809E-1,9.779960632E0,9.911260638E0
1.936432833E0,2.789067626E-1,-1.748058319E0,1.153289127E1,1.166795089E1
1.941345593E0,-4.189133346E-1,-4.115179062E0,1.275097847E1,1.340513480E1
1.946258406E0,-5.990344882E-1,-6.266346455E0,1.341374874E1,1.481737478E1
1.951171166E0,-4.863065481E-1,-8.194345474E0,1.334288216E1,1.566576829E1
1.956083978E0,-6.022760272E-2,-9.961265564E0,1.261394787E1,1.607302460E1
1.960996739E0,6.452080607E-1,-1.151463223E1,1.153260803E1,1.630963202E1
1.965909499E0,1.374439597E0,-1.298153400E1,1.026767731E1,1.660826621E1
1.970822312E0,1.968033671E0,-1.452724838E1,8.878518105E0,1.713890854E1
1.975735072E0,2.490083933E0,-1.624285126E1,7.425238132E0,1.803232920E1
1.980647885E0,2.725909710E0,-1.836988831E1,5.830054760E0,1.946465819E1
1.985560645E0,2.433164120E0,-2.084860039E1,4.358134747E0,2.143776491E1
1.990473458E0,1.662203550E0,-2.346422768E1,3.316918850E0,2.375573303E1
1.995386218E0,5.581938624E-1,-2.599292946E1,2.826499462E0,2.615211390E1
2.000299031E0,-7.077965736E-1,-2.822803497E1,2.668925285E0,2.836275897E1
2.005211791E0,-1.840511799E0,-3.019494057E1,2.624896049E0,3.036465048E1
2.010124551E0,-2.659537315E0,-3.205987930E1,2.513372660E0,3.226803436E1
2.015037364E0,-2.887291431E0,-3.387145233E1,2.389334202E0,3.407815507E1
2.019950124E0,-2.675221443E0,-3.534600067E1,2.266109705E0,3.551945701E1
2.024862937E0,-2.530032158E0,-3.612652588E1,2.299440861E0,3.628793688E1
2.029775697E0,-2.458374262E0,-3.632027435E1,2.207123280E0,3.647022520E1
2.034688510E0,-2.304921627E0,-3.615137863E1,1.895808816E0,3.627435639E1
2.039601270E0,-1.995751619E0,-3.593415070E1,1.563286424E0,3.602346562E1
2.044514083E0,-1.387050390E0,-3.575745392E1,1.232410908E0,3.580556180E1
2.049426843E0,-5.765039921E-1,-3.561187744E1,8.092634678E-1,3.562573619E1
2.054339603E0,8.640289307E-3,-3.542601013E1,3.453193903E-1,3.542769417E1
2.059252416E0,3.697805405E-1,-3.499486923E1,-2.947191000E-1,3.499806380E1
2.064165176E0,6.368969679E-1,-3.434555435E1,-9.565101862E-1,3.436477343E1
2.069077989E0,7.003607750E-1,-3.357422638E1,-1.525982738E0,3.361618368E1
2.073990749E0,5.535789728E-1,-3.283389282E1,-2.070355892E0,3.290375877E1
2.078903562E0,2.957012653E-1,-3.198313141E1,-2.501118660E0,3.208214034E1
2.083816322E0,-3.615975380E-2,-3.095706558E1,-2.662859917E0,3.107140228E1
2.088729135E0,-2.998694181E-1,-2.981027794E1,-2.682110310E0,2.993219518E1
2.093641895E0,-6.051273346E-1,-2.859499741E1,-2.644922256E0,2.872343415E1
2.098554708E0,-9.531317949E-1,-2.731107330E1,-2.568051815E0,2.744809785E1
2.103467468E0,-1.349774241E0,-2.615887642E1,-2.148460388E0,2.628163975E1
2.108380281E0,-1.750266075E0,-2.493431282E1,-1.403089404E0,2.503501642E1
2.113293041E0,-2.105091095E0,-2.344781113E1,-3.116003275E-1,2.354417868E1
2.118205801E0,-2.455785751E0,-2.170119095E1,1.040162444E0,2.186445769E1
2.123118614E0,-2.674356937E0,-1.977035904E1,2.378680706E0,2.009172475E1
2.128031374E0,-2.563551903E0,-1.761893082E1,3.538552761E0,1.815268237E1
2.132944187E0,-1.867946863E0,-1.539228153E1,4.408148766E0,1.611965669E1
2.137856947E0,-5.631246567E-1,-1.328574562E1,4.458061695E0,1.402506542E1
2.142769760E0,1.042253017E0,-1.137724209E1,4.218033791E0,1.217865912E1
2.147682520E0,2.609403133E0,-9.121150970E0,4.082203865E0,1.032805733E1
2.152595333E0,3.703774929E0,-5.877679825E0,4.474476337E0,8.263534797E0
2.157508093E0,4.741650105E0,-2.050088882E0,4.467395782E0,6.829621894E0
2.162420906E0,5.952286720E0,2.303057671E0,4.455989838E0,7.783934562E0
2.167333666E0,7.398725986E0,6.776771545E0,4.630925179E0,1.105039578E1
2.172246478E0,9.190664291E0,1.099522591E1,4.925559998E0,1.515336412E1
2.177159239E0,1.116111374E1,1.469521904E1,5.440908432E0,1.923859161E1
2.182072051E0,1.270167351E1,1.781465912E1,5.966713428E0,2.267810086E1
2.186984812E0,1.323823071E1,2.084602737E1,6.287759781E0,2.548221993E1
2.191897572E0,1.281896782E1,2.434784698E1,6.486112595E0,2.827035984E1
2.196810385E0,1.171454048E1,2.819921112E1,6.902723312E0,3.130612649E1
2.201723145E0,1.046497822E1,3.148405075E1,7.450857162E0,3.400406583E1
2.206635958E0,9.775506020E0,3.384225845E1,7.905770302E0,3.610207998E1
2.211548718E0,9.589165688E0,3.537521362E1,8.337285995E0,3.758813876E1
2.216461531E0,9.177369118E0,3.660665894E1,8.944730759E0,3.878504597E1
2.221374291E0,8.457353592E0,3.779155731E1,9.841283798E0,3.995722088E1
2.226287103E0,8.052515984E0,3.883295059E1,1.083863544E1,4.111346596E1
2.231199864E0,8.153958321E0,3.936669540E1,1.150154018E1,4.181517870E1
2.236112676E0,8.168459892E0,3.932154083E1,1.151836109E1,4.178013826E1
2.241025437E0,7.827636719E0,3.916212082E1,1.132729053E1,4.151205987E1
2.245938249E0,7.151977539E0,3.893430710E1,1.087104702E1,4.105131807E1
2.250851010E0,6.642098904E0,3.826348114E1,1.036281586E1,4.019451977E1
2.255763822E0,6.629287720E0,3.721033478E1,9.951574326E0,3.908439972E1
2.260676583E0,6.963150978E0,3.587331772E1,9.550401688E0,3.777023389E1
2.265589343E0,7.444127083E0,3.435805130E1,9.110445023E0,3.631653791E1
2.270502156E0,7.865834713E0,3.268691254E1,8.541176796E0,3.468799948E1
2.275414916E0,8.053367615E0,3.076839447E1,7.690048218E0,3.272136412E1
2.280327728E0,8.032624245E0,2.862644577E1,6.546088696E0,3.044417394E1
2.285240489E0,7.987075329E0,2.638062668E1,5.321705341E0,2.807225292E1
2.290153301E0,7.764947891E0,2.405922318E1,4.202603817E0,2.562815862E1
2.295066062E0,7.441030979E0,2.171872330E1,3.231482744E0,2.318435603E1
2.299978874E0,6.972168922E0,1.932912445E1,2.545055866E0,2.070515638E1
2.304891635E0,6.448395729E0,1.690313530E1,2.249789715E0,1.823072528E1
2.309804447E0,5.988648891E0,1.432167530E1,2.276224136E0,1.568934337E1
2.314717208E0,5.570308208E0,1.175476933E1,2.546732903E0,1.325476457E1
2.319630020E0,5.101039410E0,9.539172173E0,3.250211000E0,1.129514410E1
2.324542781E0,4.488829613E0,7.425524712E0,4.120223999E0,9.605428379E0
2.329455593E0,3.744288206E0,5.389605522E0,5.142273903E0,8.337297089E0
2.334368353E0,2.937155962E0,3.316555977E0,6.096183777E0,7.535906404E0
2.339281166E0,2.125137329E0,1.266187668E0,6.993661404E0,7.418270668E0
2.344193926E0,1.401796222E0,-7.854337692E-1,7.839231968E0,8.002218236E0
2.349106687E0,7.463555932E-1,-2.895603180E0,8.321373940E0,8.842331632E0
2.354019499E0,3.518253863E-1,-5.080806255E0,8.562541008E0,9.962704543E0
2.358932260E0,3.805638254E-1,-7.159170151E0,8.574433327E0,1.117673713E1
2.363845072E0,4.813007712E-1,-9.109258652E0,8.444726944E0,1.243075447E1
2.368757833E0,5.880012512E-1,-1.092643356E1,7.908877373E0,1.350122354E1
2.373670645E0,8.328365684E-1,-1.275670719E1,6.930972576E0,1.454185600E1
2.378583406E0,1.050731301E0,-1.460513878E1,5.717867851E0,1.571967327E1
2.383496218E0,1.234009027E0,-1.651054001E1,4.234801292E0,1.708959484E1
2.388408978E0,1.192906499E0,-1.850230789E1,2.787449598E0,1.874908794E1
2.393321791E0,8.664121628E-1,-2.042596817E1,1.746745586E0,2.051881980E1
2.398234551E0,3.371295929E-1,-2.227305222E1,9.037276506E-1,2.229392821E1
2.403147364E0,-2.552670240E-1,-2.403981972E1,2.396422625E-1,2.404236930E1
2.408060124E0,-7.185043097E-1,-2.594222069E1,-1.420007944E-1,2.595255723E1
2.412972937E0,-1.187404871E0,-2.787308502E1,-3.433375359E-1,2.790047813E1
2.417885697E0,-1.662379026E0,-2.952231789E1,-5.048286915E-1,2.957339361E1
2.422798510E0,-2.134251833E0,-3.069042587E1,-4.639382362E-1,3.076804365E1
2.427711270E0,-2.558274984E0,-3.139575577E1,-4.669286013E-1,3.150327401E1
2.432624083E0,-2.945411205E0,-3.171893501E1,-5.065674782E-1,3.185942398E1
2.437536843E0,-3.197272301E0,-3.195077324E1,-7.260497808E-1,3.211855553E1
2.442449656E0,-3.241196156E0,-3.216621017E1,-9.694381952E-1,3.234362750E1
2.447362416E0,-2.965843201E0,-3.215540314E1,-1.011497736E0,3.230772825E1
2.452275228E0,-2.562855482E0,-3.200962067E1,-1.083403349E0,3.213032534E1
2.457187989E0,-2.237347364E0,-3.176475906E1,-1.258289218E0,3.186830609E1
2.462100749E0,-1.787366629E0,-3.130128479E1,-1.342465043E0,3.138100256E1
2.467013562E0,-1.487337112E0,-3.074603271E1,-1.489053726E0,3.081798145E1
2.471926322E0,-1.427798986E0,-3.005131149E1,-1.700537443E0,3.013323348E1
2.476839135E0,-1.349962473E0,-2.912642288E1,-1.862806559E0,2.921713464E1
2.481751895E0,-1.153052330E0,-2.801926041E1,-1.947928667E0,2.811054801E1
2.486664708E0,-8.580398560E-1,-2.688253021E1,-1.946792245E0,2.696658419E1
2.491577520E0,-5.017123222E-1,-2.579185867E1,-1.816755295E0,2.586063203E1
2.496490281E0,-1.995182037E-2,-2.465528297E1,-1.639149666E0,2.470971850E1
2.501403041E0,3.473452330E-1,-2.340987778E1,-1.318619967E0,2.344955831E1
2.506315853E0,5.722638369E-1,-2.212211227E1,-1.065692544E0,2.215515827E1
2.511228614E0,6.642255783E-1,-2.095169449E1,-8.469395638E-1,2.097932325E1
2.516141426E0,8.192344308E-1,-1.974250793E1,-5.070354939E-1,1.976600237E1
2.521054187E0,1.122682810E0,-1.835060501E1,-5.764120817E-2,1.838500594E1
2.525966999E0,1.509280443E0,-1.676839447E1,5.644414425E-1,1.684563963E1
2.530879760E0,2.120268583E0,-1.516732025E1,1.430002689E0,1.538141899E1
2.535792572E0,2.977643490E0,-1.360859203E1,2.335434198E0,1.412495631E1
2.540705333E0,3.941363335E0,-1.197426414E1,3.163093567E0,1.299701918E1
2.545618145E0,5.051640987E0,-1.038813019E1,3.861605883E0,1.217966853E1
2.550530906E0,6.095673561E0,-8.792372704E0,4.237460613E0,1.150735097E1
2.555443718E0,6.874687195E0,-7.007633209E0,4.409897327E0,1.076175830E1
2.560356478E0,7.389976025E0,-4.909969330E0,4.660773277E0,1.002209319E1
2.565269291E0,7.857721329E0,-2.375734329E0,4.973636150E0,9.598174547E0
2.570182051E0,8.515908241E0,4.340181351E-1,5.263419628E0,1.002061131E1
2.575094864E0,9.311510086E0,3.353540421E0,5.536358833E0,1.134026995E1
2.580007624E0,1.021099663E1,6.298389435E0,5.789117336E0,1.332096247E1
2.584920437E0,1.094605827E1,9.298861504E0,6.019995213E0,1.557322572E1
2.589833197E0,1.128117275E1,1.217744637E1,5.967961311E0,1.764005728E1
2.594746010E0,1.104012585E1,1.488389301E1,5.531536102E0,1.933940386E1
2.599658770E0,1.047212029E1,1.757614517E1,5.127742767E0,2.109217694E1
2.604571583E0,9.957800865E0,2.019196701E1,5.027996063E0,2.306846493E1
2.609484343E0,9.437458038E0,2.266667938E1,5.191600800E0,2.509575038E1
2.614397156E0,8.757329941E0,2.506694031E1,5.677441597E0,2.715282061E1
2.619309916E0,7.774540901E0,2.749251556E1,6.495447159E0,2.929970532E1
2.624222728E0,6.721602917E0,2.990880203E1,7.403077126E0,3.153604185E1
2.629135489E0,5.947634697E0,3.202774048E1,8.382911682E0,3.363664262E1
2.634048301E0,5.305253029E0,3.385540009E1,9.228628159E0,3.548945480E1
2.638961062E0,4.943598270E0,3.560564804E1,1.006631470E1,3.733004189E1
2.643873874E0,4.770100117E0,3.713615417E1,1.100177956E1,3.902418424E1
2.648786635E0,4.767448902E0,3.816887665E1,1.164983368E1,4.019092358E1
2.653699447E0,4.830296040E0,3.880660629E1,1.219875717E1,4.096454721E1
2.658612208E0,4.838922024E0,3.902331924E1,1.269020367E1,4.131919506E1
2.663525020E0,4.834244728E0,3.875509644E1,1.305085850E1,4.117829925E1
2.668437781E0,5.123556614E0,3.816996002E1,1.342990875E1,4.078675189E1
2.673350593E0,5.687427521E0,3.716839218E1,1.345426750E1,3.993561723E1
2.678263353E0,6.263185501E0,3.570662689E1,1.291975689E1,3.848520254E1
2.683176166E0,6.764500618E0,3.389949417E1,1.203419209E1,3.660267685E1
2.688088926E0,7.107201576E0,3.186913300E1,1.084378719E1,3.440554712E1
2.693001739E0,7.312025547E0,2.966576767E1,9.551948547E0,3.201192294E1
2.697914499E0,7.507197380E0,2.734888840E1,8.318449974E0,2.955530949E1
2.702827312E0,7.617694855E0,2.496083450E1,7.082909107E0,2.704145217E1
2.707740072E0,7.589512348E0,2.243837166E1,6.022246838E0,2.444071761E1
2.712652885E0,7.391689301E0,1.994035339E1,5.323559761E0,2.192247825E1
2.717565645E0,7.009147644E0,1.740755844E1,4.904953003E0,1.939612862E1
2.722478458E0,6.528864861E0,1.491920853E1,4.856122017E0,1.699384537E1
2.727391218E0,6.016149044E0,1.241073227E1,5.258879662E0,1.476062804E1
2.732304031E0,5.409152508E0,9.913226128E0,5.806488037E0,1.269827888E1
2.737216791E0,4.566394806E0,7.398011208E0,6.511374950E0,1.086188451E1
2.742129603E0,3.539273977E0,4.972702026E0,7.333968163E0,9.541557249E0
2.747042364E0,2.594745159E0,2.620424271E0,8.210475922E0,9.000624459E0
2.751955176E0,1.959888816E0,3.195848465E-1,8.947135925E0,9.164853513E0
2.756867937E0,1.503541350E0,-1.963258743E0,9.430757523E0,9.749574808E0
2.761780749E0,1.233867049E0,-4.263832569E0,9.537413597E0,1.051974117E1
2.766693510E0,1.210223794E0,-6.531745911E0,9.297699928E0,1.142696680E1
2.771606322E0,1.397309303E0,-8.762100220E0,8.789247513E0,1.248910507E1
2.776519083E0,1.647636294E0,-1.094526768E1,8.027053833E0,1.367286302E1
2.781431895E0,1.839722514E0,-1.312197399E1,6.912901402E0,1.494519943E1
2.786344656E0,1.973856211E0,-1.530204964E1,5.543893814E0,1.639462077E1
2.791257468E0,1.951714754E0,-1.749560356E1,4.117410183E0,1.807922568E1
2.796170228E0,1.861696124E0,-1.959346581E1,2.730378151E0,1.987019828E1
2.801083041E0,1.880825281E0,-2.151064110E1,1.473291039E0,2.164291502E1
2.805995801E0,2.051975012E0,-2.332484245E1,3.487343788E-1,2.341752533E1
2.810908614E0,2.173992872E0,-2.515190887E1,-6.186611652E-1,2.525326725E1
2.815821374E0,2.165040016E0,-2.706926918E1,-1.301014900E0,2.718686028E1
2.820734187E0,2.024161577E0,-2.902276230E1,-1.670373559E0,2.914117550E1
2.825646947E0,1.687832236E0,-3.086499786E1,-1.783753395E0,3.096253618E1
2.830559760E0,1.147342682E0,-3.244391251E1,-1.692484379E0,3.250828136E1
2.835472520E0,4.562730789E-1,-3.367685699E1,-1.473566294E0,3.371216813E1
2.840385333E0,-2.264862061E-1,-3.461262131E1,-1.177529931E0,3.463338601E1
2.845298093E0,-7.654781342E-1,-3.532364273E1,-8.383194208E-1,3.534187986E1
2.850210906E0,-1.173159122E0,-3.587253189E1,-5.665997267E-1,3.589618200E1
2.855123666E0,-1.464035273E0,-3.617369080E1,-4.309798479E-1,3.620587036E1
2.860036478E0,-1.774576187E0,-3.631867981E1,-5.677872896E-1,3.636644066E1
2.864949239E0,-2.179405451E0,-3.618159866E1,-7.481416464E-1,3.625489768E1
2.869862051E0,-2.402002096E0,-3.573480225E1,-9.755324125E-1,3.582872268E1
2.874774812E0,-2.297650576E0,-3.515839005E1,-1.327100754E0,3.525837184E1
2.879687624E0,-1.867345572E0,-3.446691132E1,-1.680868506E0,3.455836041E1
2.884600385E0,-1.357257366E0,-3.368402481E1,-1.919558406E0,3.376596481E1
2.889513197E0,-7.871296406E-1,-3.260596085E1,-1.876329899E0,3.266938735E1
2.894425958E0,4.473769665E-2,-3.126071739E1,-1.439584017E0,3.129387888E1
2.899338770E0,1.146096468E0,-2.969529915E1,-8.344361782E-1,2.972912061E1
2.904251531E0,2.105144739E0,-2.804058075E1,-2.234148979E-1,2.812037904E1
2.909164343E0,2.815452099E0,-2.631761932E1,4.053615332E-1,2.647089298E1
2.914077103E0,3.394342899E0,-2.459063148E1,9.896534681E-1,2.484351293E1
2.918989916E0,3.630985022E0,-2.294760132E1,1.508488536E0,2.328201014E1
2.923902676E0,3.649604797E0,-2.120384598E1,2.060320377E0,2.161406069E1
2.928815489E0,3.713849068E0,-1.948068619E1,2.724700451E0,2.001783709E1
2.933728249E0,3.750522614E0,-1.766250038E1,3.383586168E0,1.837060138E1
2.938641062E0,3.748329163E0,-1.562444115E1,3.862145424E0,1.652541376E1
2.943553822E0,3.638363838E0,-1.337112236E1,4.296557426E0,1.450810154E1
2.948466635E0,3.511656761E0,-1.095275116E1,4.540452003E0,1.236568622E1
2.953379395E0,3.327025175E0,-8.412452698E0,4.365857124E0,1.004485766E1
2.958292208E0,3.038130283E0,-5.865067482E0,3.902749538E0,7.672073132E0
2.963204968E0,2.838528872E0,-3.248295784E0,3.239264488E0,5.394581177E0
2.968117781E0,2.953996897E0,-4.711637497E-1,2.676183462E0,4.013732785E0
2.973030541E0,3.360092402E0,2.392200470E0,2.220192909E0,4.684239596E0
2.977943353E0,3.757093668E0,5.377625465E0,1.782400012E0,6.797908375E0
2.982856166E0,4.242005348E0,8.308080673E0,1.426895976E0,9.436887515E0
2.987768926E0,4.627143383E0,1.109998989E1,1.275092363E0,1.209322505E1
2.992681687E0,4.875095367E0,1.410729599E1,1.084922671E0,1.496527354E1
2.997594499E0,5.175871372E0,1.726267433E1,8.368633986E-1,1.804133892E1
3.002507312E0,5.555013180E0,2.041996002E1,9.153615236E-1,2.118185132E1
3.007420072E0,6.083220005E0,2.352152634E1,1.518505096E0,2.434283518E1
3.012332885E0,6.682424068E0,2.676058197E1,2.601442099E0,2.770471151E1
3.017245645E0,7.295883179E0,3.015528107E1,3.929003000E0,3.127311868E1
3.022158458E0,7.950878620E0,3.338398743E1,5.611198902E0,3.477344735E1
3.027071218E0,8.651445389E0,3.618966293E1,7.548138618E0,3.796727021E1
3.031984031E0,9.437257767E0,3.851130295E1,9.494800568E0,4.077172460E1
3.036896791E0,9.933403969E0,4.028071594E1,1.121393776E1,4.297628406E1
3.041809603E0,9.833639145E0,4.162586212E1,1.274821663E1,4.463104170E1
3.046722364E0,9.370373726E0,4.257440186E1,1.426691532E1,4.586860004E1
3.051635176E0,8.647554398E0,4.314451218E1,1.563352299E1,4.669728224E1
3.056547937E0,8.032238007E0,4.323007202E1,1.665695190E1,4.701925160E1
3.061460749E0,7.590677738E0,4.267763519E1,1.737761879E1,4.670096968E1
3.066373510E0,7.452750206E0,4.140636826E1,1.755951309E1,4.558911403E1
3.071286322E0,7.726036072E0,3.959212494E1,1.719699097E1,4.385161900E1
3.076199083E0,8.100596428E0,3.757153320E1,1.648108101E1,4.181944286E1
3.081111895E0,8.569046974E0,3.542344284E1,1.538280106E1,3.955855706E1
3.086024656E0,9.261510849E0,3.298345566E1,1.380129433E1,3.693453202E1
3.090937468E0,1.007269192E1,3.035522079E1,1.196146202E1,3.414637793E1
3.095850228E0,1.089759731E1,2.774481010E1,9.991161346E0,3.143812049E1
3.100763041E0,1.154221916E1,2.524053574E1,7.849767685E0,2.884313298E1
3.105675801E0,1.182523727E1,2.266967201E1,5.783527851E0,2.621448951E1
3.110588614E0,1.184385300E1,1.994988251E1,4.109299660E0,2.356185497E1
3.115501374E0,1.143269348E1,1.716099167E1,2.907064915E0,2.082443617E1
3.120414187E0,1.040968704E1,1.432015896E1,2.530600548E0,1.788386077E1
3.125326947E0,9.023777008E0,1.157805729E1,3.224978447E0,1.502931961E1
3.130239760E0,7.537568092E0,8.917533875E0,4.676102638E0,1.257788850E1
3.135152520E0,5.981326103E0,6.130064964E0,6.553183556E0,1.078416307E1
3.140065333E0,4.323315144E0,3.306139946E0,8.660535812E0,1.022870939E1
3.144978093E0,2.931740284E0,6.651639938E-1,1.084537315E1,1.125431753E1
3.149890906E0,1.951196074E0,-1.850990295E0,1.265271759E1,1.293540079E1
3.154803718E0,1.240695834E0,-4.304843903E0,1.390357685E1,1.460754793E1
3.159716478E0,7.990952134E-1,-6.631770134E0,1.460822392E1,1.606297402E1
3.164629291E0,5.808477998E-1,-8.735815048E0,1.469554043E1,1.710586909E1
3.169542051E0,6.774067879E-1,-1.061895943E1,1.413247204E1,1.769033480E1
3.174454864E0,9.614090919E-1,-1.237398338E1,1.305126095E1,1.801041878E1
3.179367624E0,1.236227751E0,-1.395989990E1,1.156627560E1,1.817101526E1
3.184280437E0,1.345523477E0,-1.528360844E1,9.971109390E0,1.829814588E1
3.189193197E0,1.376324177E0,-1.649880600E1,8.184213638E0,1.846851972E1
3.194106010E0,1.524299979E0,-1.776177216E1,6.426546574E0,1.895005386E1
3.199018770E0,1.782040715E0,-1.937465668E1,4.615258217E0,1.999633964E1
3.203931583E0,2.128409624E0,-2.125212097E1,2.722755671E0,2.153128356E1
3.208844343E0,2.310526371E0,-2.320393372E1,9.969811440E-1,2.333998808E1
3.213757156E0,1.922288179E0,-2.488722038E1,-3.683600426E-1,2.496406656E1
3.218669916E0,1.063850403E0,-2.611017036E1,-1.199764013E0,2.615936176E1
3.223582728E0,-1.909351349E-2,-2.697954178E1,-1.450823069E0,2.701852932E1
3.228495489E0,-8.584697247E-1,-2.782848740E1,-1.281951904E0,2.787122318E1
3.233408301E0,-1.405280828E0,-2.887704086E1,-9.822061062E-1,2.892789367E1
3.238321062E0,-1.631840944E0,-3.010823059E1,-6.378376484E-1,3.015916595E1
3.243233874E0,-1.541543007E0,-3.134962082E1,-4.689235687E-1,3.139100141E1
3.248146635E0,-1.377159119E0,-3.230727005E1,-4.663960934E-1,3.233997203E1
3.253059447E0,-1.323483944E0,-3.289127731E1,-5.512089729E-1,3.292250848E1
3.257972208E0,-1.375937462E0,-3.299303055E1,-8.033216000E-1,3.303147884E1
3.262885020E0,-1.412739277E0,-3.263070297E1,-1.158964872E0,3.268182688E1
3.267797781E0,-1.423932076E0,-3.207807541E1,-1.535461903E0,3.214635512E1
3.272710593E0,-1.196119070E0,-3.146982956E1,-1.943674803E0,3.155247605E1
3.277623406E0,-9.654948711E-1,-3.090452194E1,-2.404028654E0,3.101291683E1
3.282536166E0,-7.450587749E-1,-3.032252693E1,-2.831508160E0,3.046355512E1
3.287448978E0,-6.602305174E-1,-2.957566833E1,-3.205333948E0,2.975617965E1
3.292361739E0,-6.928093433E-1,-2.869281006E1,-3.617098331E0,2.892819964E1
3.297274551E0,-8.559031487E-1,-2.775295258E1,-3.883361101E0,2.803639492E1
3.302187312E0,-1.175194502E0,-2.670345879E1,-3.992829800E0,2.702588543E1
3.307100124E0,-1.639289379E0,-2.557078934E1,-4.084774971E0,2.594682878E1
3.312012885E0,-2.098915100E0,-2.438850784E1,-4.164240837E0,2.483033752E1
3.316925697E0,-2.186588526E0,-2.340006256E1,-3.853554487E0,2.381583464E1
3.321838458E0,-1.862066388E0,-2.261832809E1,-3.161478996E0,2.291399150E1
3.326751270E0,-1.218913198E0,-2.185497093E1,-2.291724682E0,2.200857801E1
3.331664031E0,-4.790267944E-1,-2.106787300E1,-1.366900444E0,2.111760300E1
3.336576843E0,1.507419348E-1,-2.018661880E1,-5.630900860E-1,2.019503336E1
3.341489603E0,7.288532257E-1,-1.916260910E1,6.079149246E-2,1.917656148E1
3.346402416E0,1.181196213E0,-1.799057579E1,6.680881977E-1,1.804168461E1
3.351315176E0,1.626817226E0,-1.686370087E1,1.163978100E0,1.698192528E1
3.356227989E0,2.110442877E0,-1.586257839E1,1.429697990E0,1.606609469E1
3.361140749E0,2.514682293E0,-1.478324890E1,1.606702566E0,1.508143124E1
3.366053562E0,2.945265293E0,-1.351767159E1,1.725813389E0,1.394203947E1
3.370966322E0,3.470395565E0,-1.204394722E1,1.762655497E0,1.265730083E1
3.375879135E0,3.919170618E0,-1.022542477E1,1.824668884E0,1.110173980E1
3.380791895E0,4.120255470E0,-8.124087334E0,2.179754972E0,9.366356383E0
3.385704708E0,4.310734749E0,-5.835312366E0,2.744572639E0,7.756673479E0
3.390617520E0,4.559926510E0,-3.607373714E0,3.357166052E0,6.713913821E0
3.395530281E0,4.783824444E0,-1.403769970E0,4.001871586E0,6.393005758E0
3.400443093E0,5.046199799E0,9.935331345E-1,4.788148403E0,7.026920067E0
3.405355853E0,5.415794849E0,3.625122070E0,5.860212326E0,8.764384313E0
3.410268666E0,5.955202103E0,6.459354401E0,7.210147858E0,1.136547067E1
3.415181426E0,6.703861237E0,9.712705612E0,8.823062897E0,1.473515676E1
3.420094239E0,7.644433022E0,1.326135349E1,1.040146160E1,1.850651929E1
3.425006999E0,8.429470062E0,1.695270538E1,1.175446796E1,2.228492097E1
3.429919812E0,8.852393150E0,2.066796875E1,1.274211407E1,2.584359239E1
3.434832572E0,9.082352638E0,2.426017570E1,1.321776295E1,2.908185881E1
3.439745385E0,9.123280525E0,2.754948425E1,1.321779251E1,3.188915755E1
3.444658145E0,8.878578186E0,3.042333984E1,1.315429401E1,3.431390693E1
3.449570958E0,8.747849464E0,3.310140991E1,1.343149185E1,3.677816175E1
3.454483718E0,8.748526573E0,3.570689392E1,1.435802841E1,3.946735322E1
3.459396531E0,8.870054245E0,3.800587463E1,1.559624290E1,4.202817105E1
3.464309343E0,9.296806335E0,3.983587265E1,1.688877869E1,4.425560081E1
3.469222103E0,9.782886505E0,4.118515015E1,1.804802132E1,4.601795882E1
3.474134916E0,1.023792267E1,4.204977036E1,1.878007126E1,4.717721191E1
3.479047676E0,1.055188560E1,4.254656982E1,1.885137939E1,4.771716042E1
3.483960489E0,1.076090240E1,4.277468109E1,1.801793480E1,4.764573787E1
3.488873249E0,1.101259708E1,4.254016876E1,1.631719017E1,4.687423544E1
3.493786062E0,1.122571659E1,4.184127426E1,1.404735279E1,4.554159709E1
3.498698822E0,1.133298302E1,4.076953888E1,1.161355209E1,4.388013670E1
3.503611635E0,1.150119209E1,3.929895401E1,9.162569046E0,4.195995564E1
3.508524395E0,1.180086994E1,3.739344025E1,7.074248791E0,3.984438355E1
3.513437208E0,1.204655838E1,3.509763718E1,5.399804592E0,3.749828788E1
3.518349968E0,1.222052097E1,3.259202194E1,4.251278877E0,3.506642838E1
3.523262781E0,1.222302246E1,2.996354294E1,3.569344759E0,3.255697169E1
3.528175541E0,1.197318268E1,2.717239380E1,3.079531193E0,2.985263138E1
3.533088353E0,1.136525345E1,2.424360275E1,2.737088203E0,2.691491988E1
3.538001114E0,1.049529839E1,2.135527420E1,2.808641434E0,2.396012294E1
3.542913926E0,9.441979408E0,1.853691101E1,3.138107538E0,2.103843540E1
3.547826739E0,8.367432594E0,1.572456360E1,3.757267952E0,1.820419982E1
3.552739499E0,7.360260010E0,1.295454884E1,4.641661167E0,1.560572912E1
3.557652312E0,6.327633858E0,1.020575428E1,5.635580540E0,1.326484597E1
3.562565072E0,5.199687481E0,7.691509247E0,6.504059792E0,1.133573368E1
3.567477885E0,4.196078300E0,5.227908134E0,7.181307793E0,9.823913588E0
3.572390645E0,3.417410612E0,2.765038490E0,7.583617687E0,8.765579865E0
3.577303458E0,2.761678457E0,3.939332962E-1,7.765258312E0,8.251138588E0
3.582216218E0,2.214040756E0,-1.835311890E0,7.660130978E0,8.182172865E0
3.587129031E0,1.783500433E0,-3.767687321E0,7.490560532E0,8.572329824E0
3.592041791E0,1.436226726E0,-5.530729771E0,7.279949188E0,9.254694981E0
3.596954603E0,1.250705719E0,-7.297414303E0,7.154820442E0,1.029601748E1
3.601867364E0,1.463457346E0,-9.187905312E0,7.161313057E0,1.174068636E1
3.606780176E0,1.882670403E0,-1.112363625E1,7.394894123E0,1.348941030E1
3.611692937E0,2.639608383E0,-1.315267277E1,7.727169991E0,1.548126253E1
3.616605749E0,3.437449455E0,-1.531099606E1,7.666380405E0,1.746470863E1
3.621518562E0,4.207253456E0,-1.766573334E1,7.172052860E0,1.952479086E1
3.626431322E0,4.918802261E0,-2.018381119E1,6.247318745E0,2.169354377E1
3.631344135E0,5.214944363E0,-2.275126076E1,5.118396759E0,2.389588869E1
3.636256895E0,5.001052380E0,-2.511831284E1,4.075712204E0,2.593359972E1
3.641169708E0,4.381472588E0,-2.720788574E1,3.119020462E0,2.773435842E1
3.646082468E0,3.571680307E0,-2.919883728E1,2.455242157E0,2.951876035E1
3.650995281E0,2.779541016E0,-3.113790894E1,2.178213120E0,3.133751480E1
3.655908041E0,2.165401936E0,-3.303778839E1,2.254051924E0,3.318531569E1
3.660820853E0,1.742242813E0,-3.487474060E1,2.546806097E0,3.501098632E1
3.665733614E0,1.308079362E0,-3.655809021E1,2.867767811E0,3.669372049E1
3.670646426E0,7.252888680E-1,-3.794254303E1,3.135425806E0,3.807878032E1
3.675559187E0,-8.051872253E-3,-3.900064850E1,3.217324018E0,3.913312947E1
3.680471999E0,-7.191457748E-1,-3.969558334E1,3.037893057E0,3.981815292E1
3.685384760E0,-1.319007635E0,-4.006247330E1,2.621330261E0,4.016980110E1
3.690297572E0,-1.744359493E0,-4.016968155E1,2.072688103E0,4.026092574E1
3.695210333E0,-1.988937140E0,-3.992267609E1,1.601886272E0,4.000427448E1
3.700123145E0,-2.055047512E0,-3.930538940E1,1.236979246E0,3.937850904E1
3.705035958E0,-1.942154884E0,-3.855702972E1,8.799341917E-1,3.861593960E1
3.709948718E0,-1.687507153E0,-3.760273743E1,5.721821785E-1,3.764493239E1
3.714861478E0,-1.332862139E0,-3.646319199E1,4.578161240E-1,3.649041637E1
3.719774291E0,-9.771006107E-1,-3.522843170E1,2.091293335E-1,3.524260009E1
3.724687051E0,-5.421404839E-1,-3.394791794E1,-2.436645031E-1,3.395312093E1
3.729599864E0,-2.134306431E-1,-3.258524323E1,-7.484679222E-1,3.259453686E1
3.734512676E0,9.598612785E-2,-3.109927750E1,-1.222513914E0,3.112344477E1
3.739425437E0,5.473271608E-1,-2.948689651E1,-1.484542370E0,2.952931593E1
3.744338249E0,1.036334395E0,-2.785254478E1,-1.669181108E0,2.792175506E1
3.749251010E0,1.686183214E0,-2.621208954E1,-1.679217815E0,2.631989028E1
3.754163822E0,2.445465088E0,-2.457905579E1,-1.759759188E0,2.476301749E1
3.759076583E0,3.088133335E0,-2.282357025E1,-1.806733131E0,2.310229883E1
3.763989395E0,3.617816448E0,-2.090683937E1,-1.742585421E0,2.128899087E1
3.768902156E0,4.154613018E0,-1.882116318E1,-1.575475574E0,1.933853965E1
3.773814968E0,4.655767441E0,-1.656344223E1,-1.200532913E0,1.724717566E1
3.778727728E0,5.202924728E0,-1.416619587E1,-6.816301346E-1,1.510682464E1
3.783640541E0,5.746906757E0,-1.163303947E1,6.182301044E-2,1.297529833E1
3.788553353E0,6.177221298E0,-8.876836777E0,8.858267665E-1,1.085085173E1
3.793466114E0,6.471963406E0,-5.703245163E0,1.718672991E0,8.795859967E0
3.798378926E0,6.656706810E0,-2.114617348E0,2.557908058E0,7.438161447E0
3.803291687E0,6.795353413E0,2.022617340E0,3.240054846E0,7.795239849E0
3.808204499E0,7.016606808E0,6.738764763E0,4.022033691E0,1.052713050E1
3.813117260E0,7.508876324E0,1.161676884E1,5.002555847E0,1.470911645E1
3.818030072E0,8.236030579E0,1.633315086E1,6.129319668E0,1.929177484E1
3.822942833E0,9.085590363E0,2.050969124E1,7.072271824E0,2.352046802E1
3.827855645E0,9.686431885E0,2.420612335E1,8.101861954E0,2.730207936E1
3.832768406E0,9.984286308E0,2.772840500E1,9.216726303E0,3.087877039E1
3.837681218E0,9.813709259E0,3.117885590E1,1.055731106E1,3.434947978E1
3.842593978E0,9.374548912E0,3.452810287E1,1.209965134E1,3.776868568E1
3.847506791E0,8.999948502E0,3.770818329E1,1.384561634E1,4.116560763E1
3.852419603E0,8.786540985E0,4.047359467E1,1.573927784E1,4.430620763E1
3.857332364E0,8.776679993E0,4.293468475E1,1.758000565E1,4.721730472E1
3.862245176E0,8.897678375E0,4.536884308E1,1.915962029E1,5.004589546E1
3.867157937E0,8.904720306E0,4.765892410E1,1.998603058E1,5.244147699E1
3.872070749E0,9.137688637E0,4.935123825E1,2.010176468E1,5.406591360E1
3.876983510E0,9.641874313E0,5.052656174E1,1.987577057E1,5.514476799E1
3.881896322E0,1.006084347E1,5.122118759E1,1.907674408E1,5.557654896E1
3.886809083E0,1.058938885E1,5.112083054E1,1.765800476E1,5.511151969E1
3.891721895E0,1.120480919E1,5.012281036E1,1.584152412E1,5.374753719E1
3.896634656E0,1.167415810E1,4.846453476E1,1.389609146E1,5.175131355E1
3.901547468E0,1.190287685E1,4.623271179E1,1.191547108E1,4.920488358E1
3.906460228E0,1.196318150E1,4.357855606E1,1.009377003E1,4.630434594E1
3.911373041E0,1.198270416E1,4.065289688E1,8.371150017E0,4.320091870E1
3.916285801E0,1.219036674E1,3.736930847E1,6.759382725E0,3.988432664E1
3.921198614E0,1.243955612E1,3.389701080E1,5.451839447E0,3.651674207E1
3.926111374E0,1.269811726E1,3.048128128E1,4.526855469E0,3.332931309E1
3.931024187E0,1.280420876E1,2.709425354E1,3.730339766E0,3.019870480E1
3.935936999E0,1.253788280E1,2.382262039E1,3.210845709E0,2.711134961E1
3.940849760E0,1.213049316E1,2.059495544E1,3.213521957E0,2.411696037E1
3.945762572E0,1.177005291E1,1.727281952E1,3.674205780E0,2.122225784E1
3.950675333E0,1.125165653E1,1.388295460E1,4.382041931E0,1.839941560E1
3.955588145E0,1.038861656E1,1.042825031E1,5.493415833E0,1.571144093E1
3.960500906E0,9.321310043E0,7.047967911E0,6.986624718E0,1.361519730E1
3.965413718E0,8.443479538E0,3.611034393E0,8.644756317E0,1.261204693E1
3.970326478E0,7.744540215E0,5.825519562E-2,1.025102901E1,1.284775827E1
3.975239291E0,7.530301571E0,-3.762772560E0,1.148551846E1,1.424012055E1
3.980152051E0,7.804110527E0,-7.980479240E0,1.216282558E1,1.650837715E1
3.985064864E0,8.228748322E0,-1.259670830E1,1.211389637E1,1.931672447E1
3.989977676E0,8.558546066E0,-1.747996140E1,1.119324875E1,2.245187250E1
3.994890437E0,8.339969635E0,-2.233016396E1,9.718051910E0,2.574163648E1
3.999803197E0,7.425823212E0,-2.687493515E1,8.276060104E0,2.908432844E1
4.004716010E0,6.132097721E0,-3.104590988E1,7.181833267E0,3.245042175E1
4.009628822E0,5.060568333E0,-3.515928650E1,6.714268684E0,3.615060418E1
4.014541583E0,4.320963860E0,-3.941779327E1,6.805151939E0,4.023360844E1
4.019454395E0,3.741312504E0,-4.368140411E1,7.055617332E0,4.440545260E1
4.024367156E0,2.767322779E0,-4.745140839E1,7.376039505E0,4.810093754E1
4.029279968E0,1.440747499E0,-5.005548859E1,7.783156872E0,5.067746266E1
4.034192781E0,1.188464165E-1,-5.173834991E1,7.936126709E0,5.234360595E1
4.039105541E0,-1.042822838E0,-5.307228851E1,7.673278809E0,5.363426605E1
4.044018301E0,-1.854831696E0,-5.408599854E1,7.059801102E0,5.457633580E1
4.048931114E0,-2.272691727E0,-5.443920135E1,6.361793995E0,5.485676070E1
4.053843926E0,-2.322320461E0,-5.426221085E1,5.550998688E0,5.459481921E1
4.058756687E0,-1.862815142E0,-5.370811462E1,4.660973072E0,5.394215723E1
4.063669499E0,-1.076835394E0,-5.294654465E1,3.459605694E0,5.307037814E1
4.068582260E0,-5.045206547E-1,-5.181019211E1,1.822594643E0,5.184469499E1
4.073495072E0,-2.074897289E-1,-5.018951797E1,-2.027180195E-1,5.019035626E1
4.078407833E0,1.341652870E-1,-4.798674011E1,-2.147018433E0,4.803493432E1
4.083320645E0,6.020071507E-1,-4.533573914E1,-3.805302143E0,4.549914263E1
4.088233406E0,1.137042761E0,-4.252781296E1,-5.238550663E0,4.286432263E1
4.093146218E0,1.890355945E0,-3.971256638E1,-6.363146305E0,4.026351953E1
4.098058978E0,2.813710928E0,-3.684556198E1,-6.946252346E0,3.760003761E1
4.102971791E0,3.798458576E0,-3.409267807E1,-7.155964851E0,3.504207212E1
4.107884603E0,5.054449081E0,-3.174137497E1,-7.086031914E0,3.291313095E1
4.112797364E0,6.045382500E0,-2.950283813E1,-6.848017693E0,3.088461517E1
4.117710176E0,6.621852875E0,-2.686159325E1,-6.383110046E0,2.839257334E1
4.122622937E0,7.085372925E0,-2.395532417E1,-5.506489754E0,2.558088144E1
4.127535749E0,7.519656658E0,-2.123427200E1,-3.998407841E0,2.287852288E1
4.132448510E0,8.010486603E0,-1.848338699E1,-1.978000998E0,2.024144210E1
4.137361322E0,8.691274643E0,-1.574156380E1,1.131751537E-1,1.798187683E1
4.142274083E0,9.434555054E0,-1.279942417E1,2.227940321E0,1.605614544E1
4.147186895E0,1.034799957E1,-9.421813965E0,4.306482315E0,1.464231756E1
4.152099656E0,1.130364513E1,-5.512831688E0,5.974063873E0,1.392311552E1
4.157012468E0,1.244033146E1,-1.172985077E0,7.248768806E0,1.444584335E1
4.161925228E0,1.370218754E1,3.172181129E0,8.350515366E0,1.635676567E1
4.166838041E0,1.517154408E1,7.595135689E0,9.798974037E0,1.959289994E1
4.171750853E0,1.641378212E1,1.178069210E1,1.133299828E1,2.316535775E1
4.176663614E0,1.699291992E1,1.580812454E1,1.293134308E1,2.656832254E1
4.181576426E0,1.666955566E1,2.014573669E1,1.467051983E1,2.998247730E1
4.186489187E0,1.569078159E1,2.464364815E1,1.633173752E1,3.346992189E1
4.191401999E0,1.410748386E1,2.844850159E1,1.761310196E1,3.631197742E1
4.196314760E0,1.218954086E1,3.154911423E1,1.846605682E1,3.853474756E1
4.201227572E0,9.498367310E0,3.446730042E1,1.873358727E1,4.036286748E1
4.206140333E0,5.860352993E0,3.777441025E1,1.830599976E1,4.238348067E1
4.211053145E0,2.228162766E0,4.096022797E1,1.768795967E1,4.467179089E1
4.215965906E0,-3.893396854E-1,4.362040710E1,1.737827873E1,4.695632091E1
4.220878718E0,-1.657816410E0,4.574857330E1,1.712487030E1,4.887679917E1
4.225791478E0,-1.663173079E0,4.740642548E1,1.666826439E1,5.027888582E1
4.230704291E0,-9.382380843E-1,4.848694992E1,1.585677910E1,5.102256409E1
4.235617051E0,-1.350317299E-1,4.916127777E1,1.478450298E1,5.133644898E1
4.240529864E0,8.289429545E-1,4.962417984E1,1.383592224E1,5.152357825E1
4.245442676E0,1.921108246E0,4.979017258E1,1.318131447E1,5.154123585E1
4.250355437E0,2.940657616E0,4.958572769E1,1.278145981E1,5.129091121E1
4.255268249E0,3.941288233E0,4.884884262E1,1.252184391E1,5.058201017E1
4.260181010E0,4.851234913E0,4.731974030E1,1.231759548E1,4.913670176E1
4.265093822E0,5.504191399E0,4.530341721E1,1.210833836E1,4.721554396E1
4.270006583E0,6.051621437E0,4.271029282E1,1.180024052E1,4.472177222E1
4.274919395E0,6.570420265E0,3.975488281E1,1.149772644E1,4.190249209E1
4.279832156E0,6.773630142E0,3.652040100E1,1.089293766E1,3.870759416E1
4.284744968E0,6.932294369E0,3.297085571E1,1.000923920E1,3.514710373E1
4.289657728E0,7.017027855E0,2.927389526E1,8.894654274E0,3.138971963E1
4.294570541E0,6.833467960E0,2.571424294E1,7.586043358E0,2.766706757E1
4.299483353E0,6.503424644E0,2.224853516E1,6.200091362E0,2.399443647E1
4.304396114E0,6.355426788E0,1.880195045E1,5.058541775E0,2.048154378E1
4.309308926E0,6.278492451E0,1.554787064E1,4.231739044E0,1.729344859E1
4.314221687E0,6.317204475E0,1.253933907E1,3.633007288E0,1.450313203E1
4.319134499E0,6.415421963E0,9.685409546E0,3.248091459E0,1.206295549E1
4.324047260E0,6.446884155E0,6.916376114E0,3.222964525E0,9.989297983E0
4.328960072E0,6.365592480E0,4.284132957E0,3.591840744E0,8.472064845E0
4.333872833E0,6.244728565E0,1.818751335E0,4.412089825E0,7.859454682E0
4.338785645E0,6.049176216E0,-5.693559647E-1,5.539762497E0,8.222266575E0
4.343698406E0,5.933166504E0,-2.969451427E0,6.992840767E0,9.639498355E0
4.348611218E0,6.142561436E0,-5.226461887E0,8.548252106E0,1.175242864E1
4.353523978E0,6.572172165E0,-7.536587715E0,9.782920837E0,1.398925093E1
4.358436791E0,7.090240479E0,-1.006455898E1,1.063736629E1,1.627023108E1
4.363349603E0,7.586216927E0,-1.285536671E1,1.094135189E1,1.850741261E1
4.368262364E0,7.888778210E0,-1.583248901E1,1.057322121E1,2.060809396E1
4.373175176E0,7.713345528E0,-1.897524071E1,9.655910492E0,2.264491260E1
4.378087937E0,6.930644035E0,-2.193117905E1,8.646339417E0,2.457172412E1
4.383000749E0,5.542167664E0,-2.418375969E1,7.856184006E0,2.602478592E1
4.387913510E0,3.765975237E0,-2.566219139E1,7.512439728E0,2.700309958E1
4.392826322E0,2.177464485E0,-2.688125038E1,7.570374966E0,2.801166812E1
4.397739083E0,1.502931595E0,-2.845903397E1,7.976450920E0,2.959390456E1
4.402651895E0,1.695619345E0,-3.044722748E1,8.618232727E0,3.168884222E1
4.407564708E0,2.374606133E0,-3.276770020E1,9.010737419E0,3.406690945E1
4.412477468E0,3.107813358E0,-3.517073822E1,8.905604362E0,3.641358428E1
4.417390281E0,3.403934956E0,-3.749927521E1,8.181819916E0,3.853212415E1
4.422303041E0,2.910910368E0,-3.945956802E1,7.041619301E0,4.018849724E1
4.427215853E0,1.909790993E0,-4.059879303E1,5.763281822E0,4.105027058E1
4.432128614E0,1.058419943E0,-4.127456665E1,4.627367020E0,4.154663200E1
4.437041426E0,7.751564980E-1,-4.158673859E1,3.928555727E0,4.177907663E1
4.441954187E0,8.721528053E-1,-4.184672928E1,3.390100718E0,4.199288255E1
4.446866999E0,1.173430204E0,-4.207078934E1,2.813875437E0,4.218111128E1
4.451779760E0,1.267081738E0,-4.214133453E1,1.987203360E0,4.220718599E1
4.456692572E0,1.237920284E0,-4.231874847E1,6.483674049E-1,4.234181502E1
4.461605333E0,1.142243147E0,-4.255994034E1,-1.084046602E0,4.258906430E1
4.466518145E0,5.303611755E-1,-4.248521423E1,-2.978177071E0,4.259277228E1
4.471430906E0,-4.327278137E-1,-4.176268005E1,-4.842761040E0,4.204475036E1
4.476343718E0,-1.112358093E0,-4.043321228E1,-6.419986725E0,4.095483153E1
4.481256531E0,-1.239693642E0,-3.890069580E1,-7.493315697E0,3.963522113E1
4.486169291E0,-9.127008915E-1,-3.734835434E1,-7.972142220E0,3.820062364E1
4.491082103E0,-1.116187572E-1,-3.576515198E1,-8.040364265E0,3.665795974E1
4.495994864E0,1.110848784E0,-3.417283630E1,-7.551586151E0,3.501489939E1
4.500907676E0,2.693035603E0,-3.236511612E1,-6.154350281E0,3.305494229E1
4.505820437E0,4.377567291E0,-3.008568954E1,-4.252920628E0,3.069852024E1
4.510733249E0,5.978322029E0,-2.755023575E1,-2.502526999E0,2.830226962E1
4.515646010E0,7.591860771E0,-2.514902878E1,-8.410022259E-1,2.628340319E1
4.520558822E0,9.214863777E0,-2.269102859E1,7.834085822E-1,2.450326962E1
4.525471583E0,1.075986671E1,-1.962956429E1,2.520036221E0,2.252654231E1
4.530384395E0,1.171970177E1,-1.586386585E1,4.362198353E0,2.020005999E1
4.535297156E0,1.211118221E1,-1.142961121E1,6.133728981E0,1.774653144E1
4.540209968E0,1.245024967E1,-6.661036491E0,7.958106995E0,1.620831857E1
4.545122781E0,1.326460743E1,-1.803368568E0,1.006240654E1,1.674676010E1
4.550035541E0,1.436852074E1,3.067824364E0,1.256177807E1,1.933039582E1
4.554948353E0,1.539787483E1,8.340031624E0,1.521632862E1,2.319886492E1
4.559861114E0,1.577453232E1,1.400205231E1,1.756529236E1,2.744873101E1
4.564773926E0,1.525811291E1,1.985992813E1,1.945150566E1,3.171100483E1
4.569686687E0,1.391698933E1,2.510515404E1,2.028724670E1,3.515001750E1
4.574599499E0,1.175444984E1,2.954038811E1,2.044597244E1,3.779999219E1
4.579512260E0,9.457991600E0,3.351666641E1,1.999385071E1,4.015687486E1
4.584425072E0,7.452423096E0,3.665296555E1,1.943396950E1,4.215041712E1
4.589337833E0,5.686923027E0,3.946001816E1,1.946778870E1,4.436698010E1
4.594250645E0,4.479418755E0,4.222453690E1,2.037093925E1,4.709513642E1
4.599163458E0,3.540361166E0,4.467288971E1,2.150089073E1,4.970401930E1
4.604076218E0,2.495289326E0,4.633156586E1,2.184974670E1,5.128598146E1
4.608989031E0,1.556288838E0,4.757278824E1,2.155813789E1,5.225270830E1
4.613901791E0,8.778905272E-1,4.848941040E1,2.106881905E1,5.287616428E1
4.618814603E0,6.955661774E-1,4.912873459E1,2.056677628E1,5.326451596E1
4.623727364E0,1.180732131E0,4.925839996E1,2.014904404E1,5.323314823E1
4.628640176E0,2.183071136E0,4.897414780E1,1.983162308E1,5.288219195E1
4.633552937E0,3.704911947E0,4.852465820E1,1.962447357E1,5.247369617E1
4.638465749E0,5.495156288E0,4.807071686E1,1.921132278E1,5.205828930E1
4.643378510E0,6.891418934E0,4.713140106E1,1.779686165E1,5.084868637E1
4.648291322E0,8.020745277E0,4.539981079E1,1.564039230E1,4.868364249E1
4.653204083E0,9.040899277E0,4.302640533E1,1.318852043E1,4.590148676E1
4.658116895E0,9.821691513E0,4.020664978E1,1.076976109E1,4.276713767E1
4.663029656E0,1.047928619E1,3.712072754E1,8.641189575E0,3.952763602E1
4.667942468E0,1.090774727E1,3.379483032E1,6.960396767E0,3.618724403E1
4.672855228E0,1.125510788E1,3.020664787E1,5.759309769E0,3.274581925E1
4.677768041E0,1.138373661E1,2.668510818E1,4.910340309E0,2.942440993E1
4.682680801E0,1.092465591E1,2.323344231E1,4.089144230E0,2.599734696E1
4.687593614E0,1.021146393E1,1.957485580E1,3.356219530E0,2.233188718E1
4.692506426E0,9.258612633E0,1.584135151E1,2.925709248E0,1.858036868E1
4.697419187E0,8.189367294E0,1.237235165E1,3.169048071E0,1.517180568E1
4.702331999E0,7.153543472E0,9.116910934E0,3.944951296E0,1.224148234E1
4.707244760E0,6.359200001E0,5.895051956E0,4.989104271E0,1.000411034E1
4.712157572E0,5.699386597E0,2.649079323E0,6.065939903E0,8.734772793E0
4.717070333E0,5.306730270E0,-5.637874603E-1,7.083043575E0,8.868412978E0
4.721983145E0,4.993694782E0,-3.758085251E0,8.146263123E0,1.026751164E1
4.726895906E0,5.023798943E0,-7.062949181E0,9.002511978E0,1.249676073E1
4.731808718E0,5.474657536E0,-1.071955395E1,9.305520058E0,1.521425041E1
4.736721478E0,6.093959332E0,-1.466524315E1,9.231292725E0,1.836906264E1
4.741634291E0,6.499471188E0,-1.873043823E1,8.616273880E0,2.161741469E1
4.746547051E0,6.660904884E0,-2.289930916E1,7.525506496E0,2.500758409E1
4.751459864E0,6.746516228E0,-2.671654129E1,6.410706520E0,2.829109785E1
4.756372676E0,6.576326370E0,-3.038784027E1,5.214197159E0,3.152549376E1
4.761285437E0,6.179432392E0,-3.415719223E1,4.169224262E0,3.496114410E1
4.766198249E0,5.614483833E0,-3.804129028E1,3.467352629E0,3.860938654E1
4.771111010E0,4.829569817E0,-4.209973526E1,3.000343561E0,4.248193163E1
4.776023822E0,3.490224838E0,-4.597799301E1,2.772302389E0,4.619354036E1
4.780936583E0,1.603818297E0,-4.912767029E1,2.947960854E0,4.924216379E1
4.785849395E0,-4.922578335E-1,-5.155306244E1,3.537687778E0,5.167664656E1
4.790762156E0,-2.724528551E0,-5.311475754E1,4.512451172E0,5.337567554E1
4.795674968E0,-4.510719299E0,-5.406984329E1,5.409914017E0,5.452670641E1
4.800587728E0,-5.673426628E0,-5.460831451E1,5.965790749E0,5.522541483E1
4.805500541E0,-6.373346329E0,-5.491315842E1,5.879301548E0,5.559353108E1
4.810413301E0,-6.538620949E0,-5.489699554E1,5.169061661E0,5.552614593E1
4.815326114E0,-6.035502911E0,-5.413482666E1,4.098150253E0,5.462418501E1
4.820238926E0,-5.367165565E0,-5.254114532E1,2.825116396E0,5.289007186E1
4.825151687E0,-4.701158524E0,-5.037220383E1,1.244960785E0,5.060641992E1
4.830064499E0,-3.747131109E0,-4.785477829E1,-3.818273544E-1,4.800277689E1
4.834977260E0,-2.606838942E0,-4.509329605E1,-1.884014130E0,4.520785847E1
4.839890072E0,-1.514422655E0,-4.232619476E1,-3.307932854E0,4.248226287E1
4.844802833E0,-5.020308495E-1,-3.958382797E1,-4.531974792E0,3.984558027E1
4.849715645E0,4.911072254E-1,-3.697275162E1,-5.441102982E0,3.737420434E1
4.854628406E0,1.628976345E0,-3.447928238E1,-5.823940277E0,3.500561037E1
4.859541218E0,2.982646704E0,-3.194331741E1,-5.611639500E0,3.256934458E1
4.864453978E0,4.626065254E0,-2.934311295E1,-4.745633125E0,3.008221719E1
4.869366791E0,6.368047714E0,-2.660424423E1,-3.510658264E0,2.758011175E1
4.874279551E0,8.144712448E0,-2.366957664E1,-2.260655165E0,2.513355847E1
4.879192364E0,9.860683441E0,-2.049245071E1,-1.135313988E0,2.276977277E1
4.884105124E0,1.127277279E1,-1.714184952E1,-1.797499657E-1,2.051708364E1
4.889017937E0,1.236832714E1,-1.346216202E1,8.547219038E-1,1.830125329E1
4.893930697E0,1.344890499E1,-9.436407089E0,2.159286261E0,1.657049611E1
4.898843510E0,1.465268612E1,-5.059441566E0,3.716771603E0,1.594093945E1
4.903756322E0,1.603039551E1,-2.568140030E-1,5.298140526E0,1.688519549E1
4.908669083E0,1.766943932E1,4.713174820E0,7.031764507E0,1.959257040E1
4.913581895E0,1.908602905E1,9.682938576E0,8.838003159E0,2.315482896E1
4.918494656E0,1.992353249E1,1.454917812E1,1.055742455E1,2.683439852E1
4.923407468E0,1.999258232E1,1.929454422E1,1.193476391E1,3.023940102E1
4.928320228E0,1.917146301E1,2.399735260E1,1.312392998E1,3.340142907E1
4.933233041E0,1.740284920E1,2.862130737E1,1.451317501E1,3.650576180E1
4.938145801E0,1.571758270E1,3.269712448E1,1.587845612E1,3.960138538E1
4.943058614E0,1.449075985E1,3.601347351E1,1.767582321E1,4.265427436E1
4.947971374E0,1.291252518E1,3.914060211E1,1.945247650E1,4.557541971E1
4.952884187E0,1.104031944E1,4.228175735E1,2.095217133E1,4.846265719E1
4.957796947E0,8.967729568E0,4.514938736E1,2.230182838E1,5.114937831E1
4.962709760E0,7.031886101E0,4.745614243E1,2.339291954E1,5.337379095E1
4.967622572E0,5.522774696E0,4.928335953E1,2.379522705E1,5.500512155E1
4.972535333E0,4.312268734E0,5.063872528E1,2.370619583E1,5.607905028E1
4.977448145E0,3.392873764E0,5.129137802E1,2.328865623E1,5.643295634E1
4.982360906E0,2.924964190E0,5.134391785E1,2.263267326E1,5.618710897E1
4.987273718E0,2.867228746E0,5.078725433E1,2.161193275E1,5.526881436E1
4.992186478E0,3.026113033E0,4.970892334E1,2.039327240E1,5.381468182E1
4.997099291E0,3.442809582E0,4.825694656E1,1.896332932E1,5.196338796E1
5.002012051E0,4.248779297E0,4.640526581E1,1.741746902E1,4.974805572E1
5.006924864E0,5.579761505E0,4.411370850E1,1.576425743E1,4.717695230E1
5.011837624E0,7.129469872E0,4.139258575E1,1.398761654E1,4.426995496E1
5.016750437E0,8.360986710E0,3.845810699E1,1.199633503E1,4.114418727E1
5.021663197E0,9.164535522E0,3.528468704E1,9.808631897E0,3.775191532E1
5.026576010E0,9.598908424E0,3.190152740E1,7.664533138E0,3.418466852E1
5.031488770E0,9.683981895E0,2.849506187E1,5.798880577E0,3.064922630E1
5.036401583E0,9.693345070E0,2.500451469E1,4.214376926E0,2.714678004E1
5.041314343E0,9.728277206E0,2.144974136E1,3.152054787E0,2.376270673E1
5.046227156E0,9.667021751E0,1.803902054E1,2.696514130E0,2.064288643E1
5.051139968E0,9.329360008E0,1.475305271E1,2.571948051E0,1.764382156E1
5.056052728E0,8.648226738E0,1.144332886E1,2.764703035E0,1.460770974E1
5.060965541E0,7.986189842E0,8.049894333E0,3.549700022E0,1.188193575E1
5.065878301E0,7.308780670E0,4.687375069E0,4.916354656E0,9.977990931E0
5.070791114E0,6.629829884E0,1.475162506E0,6.365268707E0,9.308458219E0
5.075703874E0,6.102312088E0,-1.622804642E0,7.928221703E0,1.013550231E1
5.080616687E0,6.059597015E0,-4.852821827E0,9.318485260E0,1.212859280E1
5.085529447E0,6.541900158E0,-8.405737877E0,1.015778255E1,1.471847252E1
5.090442260E0,7.221843243E0,-1.229290009E1,1.015924168E1,1.750658744E1
5.095355020E0,7.990318298E0,-1.656184006E1,9.375558853E0,2.064075668E1
5.100267833E0,8.588247299E0,-2.115292358E1,7.899887085E0,2.415807078E1
5.105180593E0,8.540467262E0,-2.570119095E1,6.170907021E0,2.777716491E1
5.110093406E0,7.769506454E0,-2.984045029E1,4.730118275E0,3.119602094E1
5.115006166E0,6.154217243E0,-3.339672089E1,3.700444221E0,3.416004454E1
5.119918978E0,4.112173080E0,-3.638277435E1,3.265820503E0,3.675978537E1
5.124831739E0,2.499317646E0,-3.918146133E1,3.457083941E0,3.941300458E1
5.129744551E0,1.412574410E0,-4.221725464E1,3.941019297E0,4.242432779E1
5.134657364E0,6.372556686E-1,-4.512671661E1,4.552736282E0,4.536026956E1
5.139570124E0,-1.174330711E-1,-4.759468842E1,4.820752144E0,4.783835080E1
5.144482937E0,-1.168776512E0,-4.956525803E1,4.716927528E0,4.980291404E1
5.149395697E0,-2.750499964E0,-5.071584702E1,4.375010490E0,5.097845727E1
5.154308510E0,-4.436464310E0,-5.108813477E1,3.645495415E0,5.140981780E1
5.159221270E0,-5.680935383E0,-5.117532730E1,2.706976891E0,5.156078815E1
5.164134083E0,-6.334775925E0,-5.110590744E1,1.805118084E0,5.152864846E1
5.169046843E0,-6.394333839E0,-5.078500366E1,1.100196600E0,5.119779814E1
5.173959656E0,-6.087115288E0,-5.007867050E1,4.017248154E-1,5.044886118E1
5.178872416E0,-5.565451622E0,-4.908676147E1,-3.513724804E-1,4.940250871E1
5.183785228E0,-4.818216324E0,-4.761684418E1,-1.155878305E0,4.787395025E1
5.188697989E0,-4.061464310E0,-4.565356064E1,-1.906158686E0,4.587348398E1
5.193610801E0,-3.377229214E0,-4.333239746E1,-2.775089264E0,4.355230726E1
5.198523562E0,-2.529350519E0,-4.089168930E1,-3.793151140E0,4.114505880E1
5.203436374E0,-1.319553137E0,-3.838751221E1,-4.725599766E0,3.869978820E1
5.208349135E0,1.562662125E-1,-3.583746338E1,-5.385550976E0,3.624020364E1
5.213261947E0,1.812067270E0,-3.321115112E1,-5.836949825E0,3.376883371E1
5.218174708E0,3.672160149E0,-3.050213432E1,-6.009669304E0,3.130464955E1
5.223087520E0,5.497721672E0,-2.768015671E1,-5.874018192E0,2.882568488E1
5.228000333E0,7.241256237E0,-2.482278061E1,-5.462487221E0,2.642810995E1
5.232913093E0,8.874199867E0,-2.186409378E1,-4.675615788E0,2.405517414E1
5.237825906E0,1.030218887E1,-1.873598099E1,-3.413234234E0,2.165230351E1
5.242738666E0,1.150546837E1,-1.521738815E1,-1.870287061E0,1.916879439E1
5.247651478E0,1.263911057E1,-1.152014637E1,-8.579611778E-3,1.710149005E1
5.252564239E0,1.399395752E1,-7.597522736E0,2.213248253E0,1.607643202E1
5.257477051E0,1.548225117E1,-3.180827141E0,4.636156559E0,1.647154243E1
5.262389812E0,1.686905289E1,2.009505272E0,6.923902988E0,1.834512168E1
5.267302624E0,1.806792450E1,7.876484871E0,8.942960739E0,2.164406284E1
5.272215385E0,1.857106018E1,1.431069374E1,1.042917728E1,2.566024104E1
5.277128197E0,1.844160461E1,2.065265846E1,1.155003452E1,3.000047299E1
5.282040958E0,1.816461754E1,2.619338608E1,1.234562588E1,3.418276295E1
5.286953770E0,1.751394081E1,3.089669418E1,1.322185230E1,3.789671770E1
5.291866531E0,1.619379807E1,3.529829407E1,1.415490055E1,4.133485054E1
5.296779343E0,1.480907822E1,3.873762131E1,1.522383881E1,4.417779273E1
5.301692103E0,1.331673336E1,4.147047424E1,1.683058548E1,4.669479874E1
5.306604916E0,1.146889687E1,4.385223770E1,1.875224495E1,4.905304310E1
5.311517676E0,9.648789406E0,4.591651154E1,2.107432938E1,5.143493489E1
5.316430489E0,8.178514481E0,4.758380508E1,2.344524193E1,5.367295385E1
5.321343249E0,7.186707497E0,4.846624756E1,2.501925087E1,5.501444202E1
5.326256062E0,6.650498390E0,4.877273941E1,2.561231613E1,5.548873738E1
5.331168822E0,6.479948997E0,4.880126953E1,2.535376358E1,5.537478645E1
5.336081635E0,6.625967503E0,4.864686203E1,2.439554977E1,5.482301961E1
5.340994447E0,7.041827202E0,4.822632217E1,2.265119743E1,5.374422970E1
5.345907208E0,7.414546967E0,4.738614273E1,2.030033302E1,5.208191193E1
5.350819968E0,7.670622826E0,4.600494003E1,1.752353668E1,4.982336098E1
5.355732781E0,8.110010147E0,4.414593124E1,1.465115738E1,4.721537803E1
5.360645593E0,8.657512665E0,4.183648682E1,1.186162758E1,4.433894861E1
5.365558353E0,9.231187820E0,3.931184006E1,9.246260643E0,4.142618656E1
5.370471166E0,9.744550705E0,3.652193451E1,6.998865128E0,3.844206136E1
5.375383926E0,1.024506187E1,3.343519592E1,5.278188229E0,3.536570217E1
5.380296739E0,1.070893002E1,3.021771240E1,4.235685349E0,3.233778526E1
5.385209499E0,1.110033035E1,2.708276749E1,3.792865753E0,2.951405528E1
5.390122312E0,1.132299805E1,2.405932617E1,3.611195087E0,2.683471987E1
5.395035072E0,1.125343704E1,2.082984543E1,3.406078339E0,2.391910691E1
5.399947885E0,1.110954285E1,1.731391144E1,3.099694729E0,2.080388375E1
5.404860645E0,1.105852127E1,1.365812683E1,2.888598680E0,1.780952901E1
5.409773458E0,1.106851387E1,9.831714630E0,3.039248466E0,1.511329359E1
5.414686218E0,1.073117065E1,6.251001358E0,3.449426174E0,1.288920411E1
5.419599031E0,1.026292038E1,2.884649277E0,4.128206253E0,1.143200871E1
5.424511791E0,9.554373741E0,-4.731225967E-1,4.788919449E0,1.069783399E1
5.429424603E0,8.717845917E0,-3.924965382E0,5.420818806E0,1.099051715E1
5.434337364E0,8.147037506E0,-7.721662045E0,5.973156929E0,1.271522271E1
5.439250176E0,7.879703522E0,-1.205162239E1,6.217837334E0,1.568415860E1
5.444162937E0,7.695909500E0,-1.690247154E1,5.977894306E0,1.951040204E1
5.449075749E0,7.443407059E0,-2.200638390E1,5.481359959E0,2.386902905E1
5.453988510E0,6.921572685E0,-2.703654861E1,4.852395058E0,2.832717542E1
5.458901322E0,5.998809814E0,-3.164066124E1,4.253376007E0,3.248397098E1
5.463814083E0,4.849193573E0,-3.559849167E1,3.697422504E0,3.611700736E1
5.468726895E0,3.759166002E0,-3.902709961E1,3.311903477E0,3.934735744E1
5.473639708E0,2.876701117E0,-4.209569168E1,3.194607258E0,4.231463320E1
5.478552468E0,2.049953699E0,-4.506136322E1,3.142086029E0,4.521726960E1
5.483465228E0,1.187525749E0,-4.762858200E1,2.816252708E0,4.772654733E1
5.488378041E0,1.495187283E-1,-4.962699127E1,2.244125366E0,4.967792988E1
5.493290853E0,-1.346309423E0,-5.096614838E1,1.482531071E0,5.100547743E1
5.498203614E0,-3.059320927E0,-5.174525833E1,6.307915449E-1,5.183945507E1
5.503116426E0,-4.704587936E0,-5.223555374E1,-1.409533024E-1,5.244717428E1
5.508029187E0,-5.986345291E0,-5.270460510E1,-6.758112907E-1,5.304779402E1
5.512941999E0,-6.860611439E0,-5.278267670E1,-9.010486603E-1,5.323430132E1
5.517854760E0,-7.322662354E0,-5.215693665E1,-9.566714764E-1,5.267715486E1
5.522767572E0,-7.366961479E0,-5.100425339E1,-1.041656971E0,5.154406886E1
5.527680333E0,-7.196007252E0,-4.954896927E1,-1.506379604E0,5.009143695E1
5.532593145E0,-6.820837975E0,-4.774027252E1,-2.281520605E0,4.827900980E1
5.537505906E0,-6.276338577E0,-4.554872131E1,-3.207503796E0,4.609085072E1
5.542418718E0,-5.426975250E0,-4.297089005E1,-4.214024544E0,4.351674913E1
5.547331478E0,-4.107633591E0,-4.022533798E1,-4.942086220E0,4.073542298E1
5.552244291E0,-2.499474287E0,-3.738894653E1,-5.465663910E0,3.786890778E1
5.557157051E0,-7.595086098E-1,-3.443801498E1,-5.781495094E0,3.492820372E1
5.562069864E0,9.358764887E-1,-3.131797218E1,-5.998217583E0,3.190093824E1
5.566982624E0,2.593940496E0,-2.811809540E1,-6.107143879E0,2.889036210E1
5.571895437E0,4.132955551E0,-2.474847412E1,-5.901247025E0,2.577582219E1
5.576808197E0,5.647967339E0,-2.119589233E1,-5.247586727E0,2.255443534E1
5.581721010E0,7.191488266E0,-1.727251434E1,-4.235247135E0,1.918318466E1
5.586633770E0,8.950525284E0,-1.299641228E1,-2.847419500E0,1.603516239E1
5.591546583E0,1.088513470E1,-8.388237953E0,-1.059856176E0,1.378303263E1
5.596459343E0,1.276641083E1,-3.445024490E0,9.800860882E-1,1.325933663E1
5.601372156E0,1.445125866E1,1.921874046E0,3.221191645E0,1.493012231E1
5.606284916E0,1.591426182E1,7.406095505E0,5.588316441E0,1.842127196E1
5.611197728E0,1.733444595E1,1.307665634E1,8.006401062E0,2.314269681E1
5.616110541E0,1.847099876E1,1.830853271E1,1.033629417E1,2.798605265E1
5.621023301E0,1.919606400E1,2.267058182E1,1.265211773E1,3.228808195E1
5.625936114E0,1.960395432E1,2.572463226E1,1.468823051E1,3.552204732E1
5.630848874E0,1.908328629E1,2.756642151E1,1.624775124E1,3.725679576E1
5.635761687E0,1.738667679E1,2.876820564E1,1.725975227E1,3.778631014E1
5.640674447E0,1.489526844E1,2.927090073E1,1.786197662E1,3.738589119E1
5.645587260E0,1.186372662E1,2.914699936E1,1.846406937E1,3.648585258E1
5.650500020E0,8.971893311E0,2.859255219E1,1.920711136E1,3.559412925E1
5.655412833E0,6.695106983E0,2.773482132E1,2.030184937E1,3.501727943E1
5.660325593E0,5.085428715E0,2.673290634E1,2.146541023E1,3.465939560E1
5.665238406E0,3.826972961E0,2.577852631E1,2.228056145E1,3.428704652E1
5.670151166E0,2.793394327E0,2.495150757E1,2.213820648E1,3.347358612E1
5.675063978E0,2.012643099E0,2.405572510E1,2.090184212E1,3.193142098E1
5.679976739E0,1.550451040E0,2.299733734E1,1.882885361E1,2.976251252E1
5.684889551E0,1.369325042E0,2.179657745E1,1.622380638E1,2.720620762E1
5.689802312E0,1.211891413E0,2.058734894E1,1.322178364E1,2.449741169E1
5.694715124E0,1.177444816E0,1.938202858E1,1.019624901E1,2.193200634E1
5.699627885E0,1.069375157E0,1.794435883E1,7.175953865E0,1.935556485E1
5.704540697E0,9.873247147E-1,1.644934464E1,4.400877953E0,1.705647900E1
5.709453458E0,9.445810914E-1,1.494442081E1,2.054654360E0,1.511454768E1
5.714366270E0,8.821249008E-1,1.351693249E1,2.362444401E-1,1.354774592E1
5.719279031E0,7.838424444E-1,1.223194790E1,-1.152433157E0,1.231109502E1
5.724191843E0,7.266711593E-1,1.102257252E1,-2.201189518E0,1.126367574E1
5.729104603E0,7.948895097E-1,9.745239258E0,-2.915474892E0,1.020301580E1
5.734017416E0,8.137770295E-1,8.390352249E0,-3.340893030E0,9.067624284E0
5.738930176E0,7.516087294E-1,7.039091110E0,-3.515383005E0,7.903900114E0
5.743842989E0,6.098895669E-1,5.808378220E0,-3.541262865E0,6.830063360E0
5.748755749E0,3.541768193E-1,4.671539307E0,-3.532687664E0,5.867589185E0
5.753668562E0,1.103450656E-1,3.630525589E0,-3.412148476E0,4.983537830E0
5.758581322E0,2.811270952E-2,2.672724724E0,-3.082564831E0,4.080006582E0
5.763494135E0,5.145382881E-2,1.847522736E0,-2.537420273E0,3.139186104E0
5.768406895E0,3.847795725E-2,1.187509537E0,-1.875465870E0,2.220142266E0
5.773319708E0,2.709788084E-2,5.626201630E-1,-1.228815794E0,1.351763292E0
5.778232468E0,1.031837463E-1,-1.354503632E-2,-5.836915970E-1,5.928964782E-1
5.783145281E0,1.206859946E-1,-4.912672043E-1,-8.480024338E-2,5.129324094E-1
5.788058041E0,1.564757228E-1,-9.041795731E-1,2.418470383E-1,9.489548683E-1
5.792970853E0,2.185236812E-1,-1.216233253E0,3.479483128E-1,1.283761642E0
5.797883614E0,2.674067616E-1,-1.462770462E0,1.818108559E-1,1.498085107E0
5.802796426E0,1.989099383E-1,-1.597503662E0,-1.989786625E-1,1.622089893E0
5.807709187E0,9.273034334E-2,-1.715237617E0,-6.557641029E-1,1.838658631E0
5.812621999E0,-2.346038818E-4,-1.750640869E0,-1.107053041E0,2.071306338E0
5.817534760E0,-1.007819176E-1,-1.786975384E0,-1.461262584E0,2.310568405E0
5.822447572E0,-1.629585326E-1,-1.725896835E0,-1.652614713E0,2.395080533E0
5.827360333E0,-2.079867721E-1,-1.672577858E0,-1.710621834E0,2.401458358E0
5.832273145E0,-2.836617827E-1,-1.696235657E0,-1.705204964E0,2.421859488E0
5.837185906E0,-3.470699489E-1,-1.823089123E0,-1.619688749E0,2.463230225E0
5.842098718E0,-4.055711925E-1,-1.962309837E0,-1.470430136E0,2.485420020E0
5.847011478E0,-4.666501284E-1,-2.075926781E0,-1.196788430E0,2.441216272E0
5.851924291E0,-5.882827640E-1,-2.178678036E0,-9.101440907E-1,2.433326295E0
5.856837051E0,-7.139711380E-1,-2.189696312E0,-5.278544426E-1,2.362870085E0
5.861749864E0,-8.472503424E-1,-2.150173187E0,-9.887385368E-2,2.313191284E0
5.866662624E0,-8.766439557E-1,-2.120346069E0,2.488341331E-1,2.307875756E0
5.871575437E0,-8.789384365E-1,-2.172208786E0,5.567703247E-1,2.408530045E0
5.876488197E0,-8.471289873E-1,-2.202996731E0,8.230006695E-1,2.499630416E0
5.881401010E0,-8.410193920E-1,-2.203311443E0,1.052706718E0,2.582651035E0
5.886313770E0,-8.628654480E-1,-2.142221928E0,1.176867247E0,2.592039368E0
5.891226583E0,-8.862421513E-1,-2.019837379E0,1.212403774E0,2.516960687E0
5.896139343E0,-8.751198053E-1,-1.864858627E0,1.166375399E0,2.367269301E0
5.901052156E0,-7.981603146E-1,-1.760932446E0,1.093617439E0,2.221247863E0
5.905964916E0,-7.126169801E-1,-1.609842300E0,1.003373623E0,2.026369616E0
5.910877728E0,-6.352063417E-1,-1.447379112E0,8.976800442E-1,1.817752143E0
5.915790489E0,-5.948143601E-1,-1.316366196E0,7.018136978E-1,1.605978378E0
5.920703301E0,-5.004355311E-1,-1.252500534E0,5.302803516E-1,1.449272424E0
5.925616114E0,-4.094824195E-1,-1.229302406E0,3.827900887E-1,1.351069395E0
5.930528874E0,-3.697962165E-1,-1.182178497E0,2.856636047E-1,1.271180135E0
5.935441635E0,-2.691048980E-1,-1.065800190E0,2.390558720E-1,1.124942310E0
5.940354447E0,-2.272140384E-1,-9.448680878E-1,1.641602516E-1,9.855711596E-1
5.945267208E0,-2.153284997E-1,-8.552303314E-1,6.572127342E-2,8.843667612E-1
5.950180020E0,-1.879299879E-1,-8.183546066E-1,-1.560616493E-2,8.398008662E-1
5.955092781E0,-1.041786820E-1,-7.840557098E-1,-4.372739792E-2,7.921544289E-1
5.960005593E0,-2.856695652E-2,-6.256828308E-1,-7.348012924E-2,6.306301651E-1
5.964918353E0,1.291039586E-2,-3.887891769E-1,-1.767020226E-1,4.272555526E-1
5.969831166E0,9.458303452E-2,-1.904487610E-1,-3.801414967E-1,4.355734593E-1
5.974743926E0,1.855879724E-1,-1.045293808E-1,-6.053857803E-1,6.417641545E-1
5.979656739E0,2.140394449E-1,-1.115331650E-1,-8.291454315E-1,8.635593074E-1
5.984569499E0,2.324417531E-1,-5.573177338E-2,-9.682714939E-1,9.973389018E-1
5.989482312E0,3.747805357E-1,5.805206299E-2,-1.042120934E0,1.108984460E0
5.994395124E0,5.720442533E-1,1.387872696E-1,-1.017075777E0,1.175133895E0
5.999307885E0,6.712648869E-1,2.055101395E-1,-9.574563503E-1,1.187246238E0
6.004220697E0,6.604561806E-1,2.342309952E-1,-8.367047310E-1,1.091394215E0
6.009133458E0,6.279624104E-1,2.535629272E-1,-7.453711033E-1,1.007079455E0
6.014046218E0,6.456633806E-1,2.609939575E-1,-6.519637108E-1,9.539684099E-1
6.018959031E0,6.947313547E-1,3.401069641E-1,-5.657336712E-1,9.583209217E-1
6.023871791E0,8.042669296E-1,4.428987503E-1,-4.792978764E-1,1.035727306E0
6.028784603E0,9.054034948E-1,5.142641068E-1,-4.164109230E-1,1.121437077E0
6.033697364E0,1.044363737E0,4.848108292E-1,-3.720943928E-1,1.210037765E0
6.038610176E0,1.116175175E0,4.096183777E-1,-3.247377872E-1,1.232513232E0
6.043522989E0,1.144586682E0,4.633026123E-1,-2.169454098E-1,1.253711807E0
6.048435749E0,1.196774840E0,5.955352783E-1,-1.637253761E-1,1.346751011E0
6.053348510E0,1.266002893E0,6.604366302E-1,-2.393977642E-1,1.447843624E0
6.058261322E0,1.359790087E0,5.839357376E-1,-2.524533272E-1,1.501247051E0
6.063174083E0,1.401520371E0,5.023851395E-1,-3.521823883E-2,1.489258374E0
6.068086895E0,1.323642135E0,5.280246735E-1,2.667076588E-1,1.449817758E0
6.072999656E0,1.140031099E0,6.894578934E-1,4.977693558E-1,1.422250831E0
6.077912468E0,9.768379927E-1,7.284631729E-1,4.758977890E-1,1.308185676E0
6.082825228E0,7.159435749E-1,6.072492599E-1,3.321068287E-1,9.958020947E-1
6.087738041E0,4.471876919E-1,3.551130295E-1,2.089345455E-1,6.080589937E-1
6.092650801E0,1.171485782E-1,1.446514130E-1,1.474881172E-2,1.867226502E-1
6.097563614E0,-1.837624162E-1,2.124786377E-2,-4.235267639E-2,1.897731449E-1
6.102476374E0,-3.094458282E-1,-2.038097382E-2,1.557350159E-1,3.470237742E-1
6.107389187E0,-3.771038055E-1,-6.212234497E-2,4.714138508E-1,6.068751804E-1
6.112301947E0,-5.544406772E-1,-1.640863419E-1,7.333614826E-1,9.338885674E-1
6.117214760E0,-8.684083819E-1,-3.096523285E-1,9.207599163E-1,1.303002880E0
6.122127520E0,-9.914268255E-1,-4.460439682E-1,8.707742691E-1,1.392885566E0
6.127040333E0,-1.014122486E0,-5.585279465E-1,4.677019119E-1,1.248656463E0
6.131953093E0,-1.007662058E0,-5.799407959E-1,1.727120876E-1,1.175390835E0
6.136865906E0,-9.070324302E-1,-6.082906723E-1,1.868200302E-2,1.092279446E0
6.141778718E0,-7.883135080E-1,-6.123533249E-1,-7.390618324E-2,1.000938013E0
6.146691478E0,-6.532239318E-1,-6.208353043E-1,-1.411042213E-1,9.121668605E-1
6.151604239E0,-6.235186458E-1,-6.743850708E-1,-2.116441727E-1,9.425306261E-1
6.156517051E0,-4.954833686E-1,-7.466316223E-1,-2.306053638E-1,9.252790832E-1
6.161429812E0,-3.501536250E-1,-7.993288040E-1,-2.434151173E-1,9.059718634E-1
6.166342624E0,-2.398490459E-1,-8.205585480E-1,-2.429046631E-1,8.887331269E-1
6.171255385E0,-2.055081576E-1,-7.506246567E-1,-2.934999466E-1,8.317530864E-1
6.176168197E0,-2.137213647E-1,-6.924781799E-1,-3.424620628E-1,8.015504450E-1
6.181080958E0,-2.625736892E-1,-6.246938705E-1,-3.607182503E-1,7.676620547E-1
6.185993770E0,-2.760912478E-1,-5.737571716E-1,-2.807831764E-1,6.958899778E-1
6.190906531E0,-2.691325545E-1,-4.848432541E-1,-1.666977406E-1,5.790452915E-1
6.195819343E0,-2.084360868E-1,-3.701848984E-1,-1.778912544E-2,4.252045558E-1
6.200732103E0,-1.394168288E-1,-2.682285309E-1,6.357574463E-2,3.089101362E-1
6.205644916E0,-5.945563316E-2,-1.742887497E-1,1.758534908E-1,2.546291241E-1
6.210557676E0,5.307695270E-2,-7.884597778E-2,3.048341274E-1,3.193081527E-1
6.215470489E0,2.130040228E-1,-2.005767822E-2,3.162591457E-1,3.818283272E-1
6.220383249E0,3.013428748E-1,5.262660980E-2,1.710708141E-1,3.504886755E-1
6.225296062E0,3.570977151E-1,1.395521164E-1,-3.130102158E-2,3.846730109E-1
6.230208822E0,3.974647522E-1,2.099533081E-1,-2.249512672E-1,5.026546463E-1
6.235121635E0,4.297781885E-1,2.402162552E-1,-3.366689682E-1,5.964554759E-1
6.240034395E0,4.206514955E-1,2.185802460E-1,-4.292418957E-1,6.395104452E-1
6.244947208E0,4.228968024E-1,2.121915817E-1,-4.481451511E-1,6.516909155E-1
6.249859968E0,3.865487874E-1,2.115297318E-1,-5.300292969E-1,6.892719695E-1
6.254772781E0,3.521349132E-1,2.261476517E-1,-5.695705414E-1,7.067901804E-1
6.259685541E0,2.762325704E-1,1.961050034E-1,-4.993553162E-1,6.034213595E-1
6.264598353E0,1.870940924E-1,1.356058121E-1,-3.188300133E-1,3.937584450E-1
6.269511114E0,8.910655975E-2,6.591606140E-2,-1.156082153E-1,1.601566908E-1
6.274423926E0,4.390078783E-2,-1.800727844E-2,1.255655289E-1,1.342320502E-1
6.279336687E0,-1.141306758E-2,-2.796459198E-2,3.458385468E-1,3.471549754E-1
6.284249499E0,-6.983265281E-2,2.612400055E-2,5.891132355E-1,5.938126531E-1
6.289162260E0,-6.691542268E-2,7.943153381E-2,7.555251122E-1,7.626304724E-1
6.294075072E0,-7.440856099E-2,1.318979263E-1,8.238096237E-1,8.376132718E-1
6.298987833E0,-9.239286184E-2,1.190872192E-1,7.482938766E-1,7.633229543E-1
6.303900645E0,-1.303057969E-1,1.129541397E-1,6.386981010E-1,6.615689704E-1
6.308813406E0,-1.306592822E-1,7.301998138E-2,5.638449192E-1,5.833736869E-1
6.313726218E0,-8.609873056E-2,6.884193420E-2,4.466094971E-1,4.600133109E-1
6.318638978E0,-7.522091269E-2,3.123855591E-2,2.457299232E-1,2.588768593E-1
6.323551791E0,-1.123080850E-1,-2.250385284E-2,1.230454445E-2,1.151995276E-1
6.328464551E0,-6.836013794E-1,1.938056946E-2,-1.686517477E0,1.819897704E0
6.333377364E0,-7.245048881E-1,1.026811600E-1,-2.907716513E0,2.998377240E0
6.338290124E0,-2.940013111E-1,-1.640176773E-1,-1.365828633E0,1.406707654E0
6.343202937E0,1.621058285E-1,-2.490644455E-1,1.752426624E-1,3.449947657E-1
6.348115697E0,6.664174795E-1,-1.803054810E-1,1.312900066E0,1.483350568E0
6.353028510E0,7.450400591E-1,-1.039171219E-1,1.591323137E0,1.760168397E0
6.357941270E0,6.769602299E-1,2.380561829E-2,1.363526821E0,1.522513465E0
6.362854031E0,5.019541383E-1,1.531600952E-1,9.202053547E-1,1.059336522E0
6.367766843E0,3.942502737E-1,2.558212280E-1,6.383459568E-1,7.926937237E-1
6.372679656E0,3.942079544E-1,3.464727402E-1,5.192348957E-1,7.382737622E-1
6.377592416E0,3.868953586E-1,4.970102310E-1,3.972415924E-1,7.446529869E-1
6.382505176E0,4.924122989E-1,5.234088898E-1,1.594202518E-1,7.360988756E-1
6.387417989E0,6.153536439E-1,4.977827072E-1,-1.708838940E-1,8.097215792E-1
6.392330749E0,3.077006042E-1,8.267383575E-1,-2.708177567E-1,9.227774547E-1
6.397243562E0,1.746075153E-1,9.047746658E-1,-2.239868641E-1,9.483011629E-1
6.402156322E0,2.185029685E-1,7.608194351E-1,-1.905558109E-1,8.141874951E-1
6.407069135E0,2.696346343E-1,5.625114441E-1,-1.967675686E-1,6.540943638E-1
