"Time (s)","Linear Acceleration x (m/s^2)","Linear Acceleration y (m/s^2)","Linear Acceleration z (m/s^2)","Absolute acceleration (m/s^2)"
2.910875002E-3,-1.247895223E-1,1.190539885E-1,-5.972939560E-1,6.216963462E-1
1.287487500E-2,-6.408928424E-2,1.633653581E-1,-9.375647771E-1,9.538466270E-1
2.283787499E-2,2.293570340E-3,1.636401772E-1,-8.320108402E-1,8.479536581E-1
3.280187500E-2,-7.781357646E-2,2.165107012E-2,-5.096465322E-1,5.160070826E-1
4.276587500E-2,-1.964012495E-1,-4.949609578E-2,-3.461364555E-1,4.010408460E-1
5.272887500E-2,-4.543736798E-1,-2.210832238E-3,-3.919376957E-1,6.000629017E-1
6.269287500E-2,-5.462430856E-1,6.869075060E-2,-3.658398181E-1,6.610133889E-1
7.265587500E-2,-5.399450496E-1,1.041821802E-1,-2.254084092E-1,5.943092917E-1
8.261987500E-2,-7.187030567E-1,1.194048214E-1,-2.049969488E-1,7.568456541E-1
9.258287499E-2,-5.101884229E-1,2.560928428E-1,2.249382931E-1,6.135739619E-1
1.025468750E-1,-3.012735473E-1,3.278346705E-1,7.855596820E-1,9.029647476E-1
1.125098750E-1,-3.065722941E-1,3.612836677E-1,1.179567000E0,1.271176922E0
1.224738750E-1,-3.730335014E-1,2.928870320E-1,1.291312846E0,1.375654634E0
1.324368750E-1,-7.771812066E-2,2.958708662E-1,1.294680257E0,1.330329525E0
1.424008750E-1,2.550567162E-1,1.973470366E-1,1.310751037E0,1.349840014E0
1.523638750E-1,5.488483125E-1,8.745095730E-2,1.211465900E0,1.332865997E0
1.623278750E-1,5.435092199E-1,-5.669460297E-2,9.758342189E-1,1.118422538E0
1.722908750E-1,8.323958793E-1,-2.063675362E-1,4.738583565E-1,9.798021239E-1
1.822548750E-1,7.825985058E-1,-3.226973069E-1,1.770574906E-1,8.648371685E-1
1.922188750E-1,6.770783365E-1,-2.992335999E-1,-3.363786221E-2,7.410177642E-1
2.021818750E-1,9.328826192E-1,-5.306114316E-2,-1.357571447E-1,9.442009683E-1
2.121458750E-1,4.547942407E-1,-8.101024926E-2,-3.888158673E-1,6.038031472E-1
2.221088750E-1,-7.477521703E-1,-4.383213186E-1,-4.659926820E-1,9.840772664E-1
2.320728750E-1,-1.308002846E0,-4.269759661E-1,-2.156950146E-2,1.376097803E0
2.420358750E-1,-6.497616068E-1,-3.510533792E-1,-2.565483409E-1,7.818220206E-1
2.519998750E-1,-1.769241741E-1,-4.077637696E-1,-5.809129813E-1,7.314597372E-1
2.619628750E-1,1.029703447E-1,-4.214404070E-1,-3.657316446E-1,5.674280082E-1
2.719268750E-1,7.459627761E-1,-2.717674738E-1,-6.952368647E-1,1.055306743E0
2.818898750E-1,4.812652438E-1,-3.827183908E-1,-8.098648033E-1,1.016843450E0
2.918538750E-1,-1.502151894E-1,-4.680590880E-1,-9.626271129E-1,1.080876899E0
3.018168750E-1,-8.711806069E-1,-3.950554311E-1,-9.413107958E-1,1.342047115E0
3.117808750E-1,-1.639139439E0,-2.736339051E-1,-6.647833961E-1,1.789857698E0
3.217438750E-1,-1.613778310E0,-1.362828094E-1,-5.040463614E-1,1.696147450E0
3.317078750E-1,-7.706538867E-1,1.445636362E-1,-8.188730237E-1,1.133736780E0
3.416718750E-1,7.745192617E-2,9.757950425E-2,-9.135096243E-1,9.219655060E-1
3.516348750E-1,6.893403132E-1,-6.755405188E-2,-6.723029155E-1,9.652693030E-1
3.615988750E-1,1.070740230E0,1.582315028E-2,-3.320174763E-1,1.121147009E0
3.715618750E-1,1.161785105E0,1.915237945E-1,3.039163426E-1,1.216055565E0
3.815258750E-1,9.366822861E-1,9.498860300E-2,6.895086399E-1,1.166969881E0
3.914888750E-1,5.125232162E-1,2.266965508E-3,2.652954832E-1,5.771194674E-1
4.014528750E-1,-4.709799915E-1,2.954130292E-2,2.931384623E-2,4.728151251E-1
4.114158750E-1,-1.126633326E0,4.346475130E-1,-4.080406353E-1,1.274644371E0
4.213798750E-1,-5.567804991E-1,8.895556283E-1,-1.599517536E-1,1.061554663E0
4.313428750E-1,2.380203418E-1,1.228312898E0,7.767575759E-1,1.472670564E0
4.413068750E-1,7.768819754E-1,1.466474669E0,5.002199435E-1,1.733295575E0
4.512698750E-1,2.010040022E0,2.058498822E0,-1.275656633E0,3.147217523E0
4.612338750E-1,2.075511734E0,3.047969917E0,-1.218769072E0,3.883718273E0
4.711968750E-1,-1.851447015E-1,3.453691254E0,1.235528947E0,3.672709302E0
4.811608750E-1,1.102624074E-2,3.423634812E0,1.405355478E0,3.700867590E0
4.911248750E-1,1.703418173E-1,3.315729125E0,2.923963922E0,4.424097759E0
5.010878750E-1,-1.265693782E-1,3.709281821E0,4.577949441E0,5.893421122E0
5.110518750E-1,-7.026466025E-1,4.925620206E0,7.084465435E0,8.657083640E0
5.210148750E-1,1.215619616E0,6.424002546E0,6.810250901E0,9.440606818E0
5.309788750E-1,2.882779935E0,9.259396353E0,5.766663240E0,1.128278538E1
5.409418750E-1,3.303363725E0,1.159025263E1,6.196301444E0,1.355139548E1
5.509058750E-1,4.105367239E0,1.228079711E1,7.094396346E0,1.476490695E1
5.608688750E-1,5.157088670E0,1.286873347E1,8.043018208E0,1.602778857E1
5.708328750E-1,6.305650223E0,1.359500326E1,8.174046124E0,1.707045309E1
5.807958750E-1,7.266555916E0,1.408351942E1,8.088298461E0,1.779238394E1
5.907598750E-1,8.125956869E0,1.406255949E1,7.880618225E0,1.805244853E1
6.007228750E-1,8.696222947E0,1.322717715E1,7.803921466E0,1.764890079E1
6.106868750E-1,8.825234744E0,1.116839941E1,7.698396766E0,1.618280651E1
6.206508750E-1,8.772543145E0,8.182378991E0,7.259616441E0,1.402179981E1
6.306138750E-1,8.179146066E0,4.295417243E0,6.014633131E0,1.102383107E1
6.405778750E-1,7.249842820E0,7.200027466E-2,4.537107809E0,8.552821302E0
6.505408750E-1,6.295484254E0,-4.289472964E0,3.275558753E0,8.292284694E0
6.605048750E-1,4.531205922E0,-9.039021812E0,2.560759444E0,1.043039939E1
6.704678750E-1,2.511731417E0,-1.365113420E1,2.243368485E0,1.406040404E1
6.804318750E-1,9.848278213E-1,-1.703746845E1,1.897691621E0,1.717109346E1
6.903948750E-1,-2.517577171E-1,-1.927803144E1,1.088369147E0,1.931037093E1
7.003588750E-1,-1.302523420E0,-2.070988591E1,-3.370546333E-1,2.075354301E1
7.103218750E-1,-2.365497232E0,-2.159755406E1,-2.081890608E0,2.182622705E1
7.202858750E-1,-3.255818261E0,-2.230665058E1,-3.592583091E0,2.282747612E1
7.302498750E-1,-4.159418316E0,-2.320537464E1,-4.353998158E0,2.397389149E1
7.402128750E-1,-5.328548328E0,-2.403562313E1,-4.837331343E0,2.508992589E1
7.501768750E-1,-6.351091275E0,-2.459738619E1,-5.375776874E0,2.596664678E1
7.601398750E-1,-6.911161564E0,-2.478611092E1,-5.340839760E0,2.628003079E1
7.701038750E-1,-6.535958599E0,-2.431483938E1,-4.599415154E0,2.559462421E1
7.800668750E-1,-4.842452627E0,-2.321791809E1,-3.745355633E0,2.401142971E1
7.900308750E-1,-2.982444849E0,-2.170152223E1,-3.104942847E0,2.212445965E1
7.999938750E-1,-1.549032384E0,-2.012178232E1,-3.082198348E0,2.041532688E1
8.099578750E-1,-5.855699962E-1,-1.880582434E1,-3.115673658E0,1.907116524E1
8.199208750E-1,1.924792296E-1,-1.760818827E1,-2.610274251E0,1.780165369E1
8.298848750E-1,1.217379189E0,-1.613240367E1,-1.736692046E0,1.627121874E1
8.398478750E-1,2.321806690E0,-1.421483853E1,-6.768596506E-1,1.441910398E1
8.498118750E-1,2.971802332E0,-1.187989212E1,3.900788659E-1,1.225216746E1
8.597748750E-1,3.017612928E0,-9.156037461E0,1.404949535E0,9.742324824E0
8.697388750E-1,3.223220033E0,-5.457563049E0,2.151184353E0,6.693409888E0
8.797028750E-1,4.866723249E0,-3.021203703E-1,2.943870767E0,5.695844713E0
8.896658750E-1,9.013394051E0,6.229505442E0,4.156088035E0,1.171840766E1
8.996298750E-1,1.388724944E1,1.363709620E1,5.009428348E0,2.009777257E1
9.095928750E-1,1.580181262E1,1.940314548E1,4.496991817E0,2.542444241E1
9.195568750E-1,1.438358683E1,2.294445317E1,3.007128285E0,2.724662038E1
9.295198750E-1,1.296327476E1,2.553039833E1,2.770963046E0,2.876675108E1
9.394838750E-1,1.349009252E1,2.717023592E1,5.001570275E0,3.074443074E1
9.494468750E-1,1.388170628E1,2.849819239E1,7.547815175E0,3.258555282E1
9.594108750E-1,1.375756405E1,2.882056810E1,9.013730850E0,3.318347568E1
9.693738750E-1,1.319199913E1,2.775996972E1,9.580890888E0,3.219376073E1
9.793378750E-1,1.246238122E1,2.537070853E1,9.412306305E0,2.979220211E1
9.893008750E-1,1.154724168E1,2.217266514E1,8.813451435E0,2.650741021E1
9.992650417E-1,1.060110255E1,1.844408166E1,8.353136399E0,2.285481156E1
1.009228042E0,9.343139591E0,1.415548695E1,8.074679711E0,1.878490140E1
1.019192042E0,8.092604935E0,9.625766514E0,7.863198200E0,1.483157178E1
1.029156042E0,7.035747603E0,5.118425125E0,7.337923522E0,1.138178992E1
1.039119042E0,6.147673075E0,9.370490527E-1,6.282249666E0,8.839604405E0
1.049083042E0,5.008348952E0,-3.031575494E0,4.579526435E0,7.432770114E0
1.059046042E0,3.459426203E0,-7.028712818E0,2.890523695E0,8.350183278E0
1.069010042E0,2.079437263E0,-1.068246071E1,1.465298209E0,1.098117138E1
1.078973042E0,4.858049490E-1,-1.432764418E1,2.655700099E-1,1.433833748E1
1.088937042E0,-1.535154310E0,-1.798452209E1,-1.029142699E0,1.807923859E1
1.098900042E0,-3.997453366E0,-2.168059622E1,-2.914924711E0,2.223791069E1
1.108864042E0,-6.986195959E0,-2.518118857E1,-4.078263348E0,2.644865637E1
1.118827042E0,-1.001000401E1,-2.810012798E1,-4.349332080E0,3.014521625E1
1.128791042E0,-1.216073506E1,-3.010337705E1,-4.519236964E0,3.277987629E1
1.138755042E0,-1.292665014E1,-3.078942384E1,-5.181779122E0,3.379256929E1
1.148718042E0,-1.266559067E1,-3.024655899E1,-6.068018210E0,3.334804886E1
1.158682042E0,-1.135443092E1,-2.871242502E1,-6.604683849E0,3.157448813E1
1.168645042E0,-8.836343284E0,-2.641093989E1,-6.477726763E0,2.859334979E1
1.178609042E0,-5.527915578E0,-2.354176262E1,-6.139924929E0,2.494937106E1
1.188572042E0,-2.711791270E0,-2.044445975E1,-5.522574731E0,2.135014234E1
1.198536042E0,-4.703826253E-1,-1.737426456E1,-4.500929332E0,1.795396039E1
1.208499042E0,1.245574024E0,-1.423158729E1,-2.897015274E0,1.457677019E1
1.218463042E0,3.068675785E0,-1.041745320E1,-6.770871804E-1,1.088110975E1
1.228426042E0,5.156095228E0,-5.676406204E0,1.385101308E0,7.792651091E0
1.238390042E0,7.716147158E0,2.276835608E-1,3.186596290E0,8.351356937E0
1.248353042E0,1.123041147E1,7.275948299E0,5.097025486E0,1.431926096E1
1.258317042E0,1.513362673E1,1.464441943E1,6.479879124E0,2.203348615E1
1.268281042E0,1.727442920E1,2.117222759E1,7.390571267E0,2.830706041E1
1.278244042E0,1.789547133E1,2.615978326E1,8.315186216E0,3.276773530E1
1.288208042E0,1.884157421E1,2.982934846E1,9.031002356E0,3.641914266E1
1.298171042E0,1.938945832E1,3.276746907E1,9.485544435E0,3.923816607E1
1.308135042E0,1.969707566E1,3.422287379E1,9.397981796E0,4.058943141E1
1.318098042E0,1.923327568E1,3.354721633E1,8.760800182E0,3.964954271E1
1.328062042E0,1.773209311E1,3.061898219E1,7.779435081E0,3.622801135E1
1.338025042E0,1.592782947E1,2.621251345E1,6.604089187E0,3.137523876E1
1.347989042E0,1.466355854E1,2.164578190E1,6.047929516E0,2.683537356E1
1.357952042E0,1.359103534E1,1.645985359E1,5.852301561E0,2.213351430E1
1.367916042E0,1.224465430E1,1.088728516E1,5.820544163E0,1.738802092E1
1.377879042E0,1.113492293E1,5.346439054E0,5.853052928E0,1.366854593E1
1.387843042E0,9.786366139E0,-1.907969856E-1,5.673983703E0,1.131386127E1
1.397807042E0,7.989796851E0,-5.453886319E0,5.031463580E0,1.090400639E1
1.407770042E0,5.459517188E0,-1.042183627E1,4.597983756E0,1.263180327E1
1.417734042E0,2.929185485E0,-1.504934496E1,4.363435564E0,1.594059225E1
1.427697042E0,4.602029152E-1,-1.899493382E1,3.727664298E0,1.936271620E1
1.437661042E0,-2.174820114E0,-2.218043025E1,3.032271312E0,2.249213191E1
1.447624042E0,-4.805897296E0,-2.514649821E1,2.477924863E0,2.572125838E1
1.457588042E0,-6.886296864E0,-2.788978259E1,8.361040373E-1,2.873952204E1
1.467551042E0,-9.493424728E0,-3.003694800E1,-1.037254103E0,3.151855413E1
1.477515042E0,-1.166829893E1,-3.155418352E1,-2.125564631E0,3.370954942E1
1.487478042E0,-1.251231293E1,-3.224911574E1,-2.391164023E0,3.467392546E1
1.497442042E0,-1.254449952E1,-3.200545759E1,-2.115999756E0,3.444112714E1
1.507405042E0,-1.169073586E1,-3.085279129E1,-1.557783473E0,3.303020928E1
1.517369042E0,-9.601366668E0,-2.887955247E1,-9.841976376E-1,3.044968699E1
1.527333042E0,-6.449292923E0,-2.604176774E1,-9.788812029E-1,2.684632665E1
1.537296042E0,-2.873665003E0,-2.278032183E1,-1.398531339E0,2.300341068E1
1.547260042E0,-8.957335040E-2,-1.960865757E1,-1.689621960E0,1.968152173E1
1.557223042E0,9.967551179E-1,-1.707087827E1,-1.502322779E0,1.716582009E1
1.567187042E0,1.381894402E0,-1.470763602E1,-4.603793550E-1,1.477958519E1
1.577150042E0,2.796544029E0,-1.124502133E1,1.275988755E0,1.165758596E1
1.587114042E0,5.234082466E0,-6.107945337E0,2.793056458E0,8.514915142E0
1.597077042E0,8.517422694E0,5.333075827E-1,4.103023383E0,9.469197812E0
1.607041042E0,1.273994270E1,7.849149095E0,5.130470974E0,1.581888156E1
1.617004042E0,1.643378436E1,1.544887234E1,5.322550254E0,2.317469453E1
1.626968042E0,1.833886920E1,2.247557664E1,5.221135561E0,2.947415691E1
1.636931042E0,1.905142961E1,2.760787195E1,5.484615777E0,3.398871245E1
1.646895042E0,1.946817354E1,3.116595647E1,5.684585874E0,3.718388280E1
1.656859042E0,1.940273618E1,3.295433205E1,5.801937153E0,3.867966710E1
1.666822042E0,1.887400287E1,3.293977482E1,6.366798066E0,3.849406276E1
1.676786042E0,1.795439139E1,3.113211044E1,6.923750035E0,3.659927301E1
1.686749042E0,1.647865356E1,2.782754716E1,7.454800007E0,3.318873977E1
1.696713042E0,1.471587007E1,2.332819892E1,8.094846758E0,2.874522987E1
1.706676042E0,1.262891109E1,1.813828749E1,8.003837185E0,2.350634548E1
1.716640042E0,1.065595528E1,1.297530132E1,7.175124759E0,1.825897704E1
1.726603042E0,9.337021065E0,8.511991800E0,6.250284108E0,1.409609940E1
1.736567042E0,8.392364200E0,4.611759211E0,5.822456787E0,1.120718979E1
1.746530042E0,7.179116068E0,5.626658678E-1,5.166181090E0,8.862602747E0
1.756494042E0,5.751234777E0,-3.300864918E0,4.139208292E0,7.816997886E0
1.766457042E0,3.936333883E0,-6.737070658E0,3.164427157E0,8.420002656E0
1.776421042E0,2.205056797E0,-9.858690934E0,2.198589338E0,1.033875512E1
1.786384042E0,6.134216000E-1,-1.253760916E1,1.012133149E0,1.259334519E1
1.796348042E0,-1.028432701E0,-1.486862974E1,-1.993877880E-1,1.490548824E1
1.806312042E0,-2.797353576E0,-1.715708845E1,-1.181191429E0,1.742372188E1
1.816275042E0,-4.740404680E0,-1.934454235E1,-2.386814718E0,2.005940278E1
1.826239042E0,-6.628034120E0,-2.145384587E1,-3.656711844E0,2.275016221E1
1.836202042E0,-8.494136742E0,-2.352852453E1,-4.690562721E0,2.545079967E1
1.846166042E0,-9.978930738E0,-2.508233555E1,-5.463319048E0,2.754179497E1
1.856129042E0,-1.101265882E1,-2.611505206E1,-5.495286945E0,2.886992860E1
1.866093042E0,-1.147870881E1,-2.623924225E1,-5.069768690E0,2.908541119E1
1.876056042E0,-1.082663667E1,-2.549742237E1,-4.529076658E0,2.806861494E1
1.886020042E0,-9.113565041E0,-2.385572302E1,-3.927475351E0,2.583752409E1
1.895983042E0,-7.260656660E0,-2.193368944E1,-3.707000238E0,2.339969483E1
1.905947042E0,-5.426386279E0,-1.991200761E1,-3.740122375E0,2.097432312E1
1.915911042E0,-3.311993046E0,-1.774998442E1,-3.712493112E0,1.843404052E1
1.925874042E0,-1.173403888E0,-1.532833667E1,-3.404314442E0,1.574560696E1
1.935838042E0,6.263264780E-1,-1.270032781E1,-2.170564803E0,1.289968848E1
1.945801042E0,2.285756121E0,-9.827041125E0,-7.441483120E-1,1.011677691E1
1.955765042E0,3.580416205E0,-6.685458455E0,4.518669053E-1,7.597296799E0
1.965728042E0,4.953063528E0,-2.874280130E0,1.714058059E0,5.977651680E0
1.975692042E0,7.533039261E0,2.227040135E0,3.048543529E0,8.426150125E0
1.985655042E0,1.131214152E1,8.589476763E0,4.615813671E0,1.493483822E1
1.995618667E0,1.401761896E1,1.478512917E1,5.952988860E0,2.122573349E1
2.005581667E0,1.544736727E1,1.944433444E1,6.596200123E0,2.569461331E1
2.015545667E0,1.593697335E1,2.272147545E1,6.222391135E0,2.844241054E1
2.025508667E0,1.660861728E1,2.521439140E1,6.093817880E0,3.080172590E1
2.035472667E0,1.754154989E1,2.714797908E1,6.418780982E0,3.295329255E1
2.045436667E0,1.741729305E1,2.789253546E1,7.602155689E0,3.375127261E1
2.055399667E0,1.647590537E1,2.672698891E1,9.257773751E0,3.273367942E1
2.065363667E0,1.512397297E1,2.386744552E1,1.005690687E1,2.999218048E1
2.075326667E0,1.357017833E1,2.004328930E1,1.025583616E1,2.628812205E1
2.085290667E0,1.155118271E1,1.563842621E1,9.822580869E0,2.178240784E1
2.095253667E0,9.283233697E0,1.086573350E1,9.140285647E0,1.696429822E1
2.105217667E0,7.412956747E0,6.572510714E0,8.528962174E0,1.307260573E1
2.115180667E0,5.799153879E0,2.724889033E0,7.698913075E0,1.001640996E1
2.125144667E0,4.516257808E0,-4.646501613E-1,6.705248941E0,8.097706325E0
2.135107667E0,3.338313118E0,-3.158137307E0,5.351353054E0,7.053732716E0
2.145071667E0,1.894642444E0,-5.795574798E0,3.649399316E0,7.106087010E0
2.155034667E0,6.413080678E-1,-8.044030361E0,2.187906475E0,8.360899187E0
2.164998667E0,-1.306892532E-1,-9.884758991E0,1.135131669E0,9.950581083E0
2.174961667E0,-7.550176281E-1,-1.158438554E1,2.063470709E-1,1.161079752E1
2.184925667E0,-1.752947598E0,-1.354080776E1,-6.449408698E-1,1.366902516E1
2.194889667E0,-3.303541188E0,-1.621761982E1,-1.353280760E0,1.660590093E1
2.204852667E0,-5.638094078E0,-1.942440596E1,-2.367062824E0,2.036415081E1
2.214816667E0,-8.410967116E0,-2.265669999E1,-3.369988947E0,2.440137799E1
2.224779667E0,-1.074082878E1,-2.558161994E1,-3.795049950E0,2.800334062E1
2.234743667E0,-1.240146493E1,-2.774602762E1,-3.812077042E0,3.062956598E1
2.244706667E0,-1.348346295E1,-2.881336199E1,-3.895039676E0,3.204972600E1
2.254670667E0,-1.321491670E1,-2.854415151E1,-4.016941259E0,3.171022589E1
2.264633667E0,-1.135630787E1,-2.680038784E1,-4.137209129E0,2.939971116E1
2.274597667E0,-8.352373922E0,-2.411564345E1,-4.068618366E0,2.584337564E1
2.284560667E0,-4.997188956E0,-2.085833736E1,-4.164695136E0,2.184918352E1
2.294524667E0,-1.279352074E0,-1.695263704E1,-4.347960323E0,1.754803133E1
2.304488667E0,2.153058239E0,-1.239475466E1,-3.988523206E0,1.319749674E1
2.314451667E0,4.722537051E0,-7.508584451E0,-3.133466735E0,9.407433786E0
2.324415667E0,6.708544432E0,-2.647957801E0,-2.243274930E0,7.553047817E0
2.334378667E0,8.779127694E0,2.493782512E0,-1.095938952E0,9.192013734E0
2.344342667E0,1.086139252E1,7.630569064E0,4.530250195E-1,1.328159115E1
2.354305667E0,1.161403677E1,1.154553079E1,1.435122776E0,1.643912128E1
2.364269667E0,1.092934536E1,1.348537265E1,1.828209157E0,1.745417469E1
2.374232667E0,9.959259535E0,1.406223556E1,2.130271055E0,1.736293103E1
2.384196667E0,8.672982019E0,1.393340853E1,2.302906589E0,1.657298613E1
2.394159667E0,7.691252638E0,1.304362954E1,2.954090823E0,1.542784143E1
2.404123667E0,6.726956145E0,1.175726782E1,4.167826028E0,1.417236958E1
2.414086667E0,4.914741461E0,9.858124924E0,5.382928603E0,1.226022965E1
2.424050667E0,3.512536756E0,7.729592246E0,6.282716274E0,1.056205636E1
2.434014667E0,2.623374352E0,6.028243695E0,6.646932905E0,9.348985618E0
2.443977667E0,1.922727059E0,4.790426733E0,6.148679380E0,8.028158304E0
2.453941667E0,1.518143298E0,3.836325445E0,5.142193472E0,6.592746446E0
2.463904667E0,1.099315719E0,2.929548013E0,4.426281438E0,5.420582439E0
2.473868667E0,9.076308337E-1,2.267888199E0,3.705624388E0,4.438328820E0
2.483831667E0,9.761990851E-1,1.777459418E0,2.733416320E0,3.403511630E0
2.493795667E0,1.066512693E0,1.358258495E0,2.207401677E0,2.802666164E0
2.503758667E0,9.412589018E-1,9.316228366E-1,1.841096420E0,2.267934183E0
2.513722667E0,4.861706923E-1,3.446074086E-1,1.369871942E0,1.493875947E0
2.523685667E0,1.602420679E-1,-3.334403962E-1,9.418607265E-1,1.011909900E0
2.533649667E0,-5.080704153E-2,-7.387161756E-1,1.069655133E0,1.300940063E0
2.543612667E0,-2.046950863E-1,-9.673037159E-1,1.324939891E0,1.653191541E0
2.553576667E0,-2.560286696E-1,-1.180503724E0,1.319083319E0,1.788608544E0
2.563540667E0,-3.225297841E-1,-1.245318940E0,9.858955228E-1,1.620751278E0
2.573503667E0,-3.180496475E-1,-1.111926994E0,4.588473845E-1,1.244217883E0
2.583467667E0,-4.987748042E-2,-7.599018073E-1,3.171763659E-1,8.249480995E-1
2.593430667E0,5.166921347E-2,-3.695405209E-1,5.652415663E-1,6.772945685E-1
2.603394667E0,-1.707623783E-1,-1.846468842E-1,7.976771593E-1,8.363869393E-1
2.613357667E0,-3.761744794E-1,-1.083559227E-1,7.823872751E-1,8.748588990E-1
2.623321667E0,-5.984686616E-1,-4.488433832E-1,7.403364390E-1,1.052484282E0
2.633284667E0,-4.876229945E-1,-4.304831260E-1,5.966873074E-1,8.826820771E-1
2.643248667E0,-4.018338159E-2,1.405512768E-1,7.800624222E-2,1.656935104E-1
2.653211667E0,3.080599719E-1,4.426166832E-1,-2.862367013E-1,6.105259403E-1
2.663175667E0,9.128595601E-1,3.663824397E-1,-1.165345402E0,1.524984778E0
2.673138667E0,9.927629314E-1,2.045145535E-1,-1.935767519E0,2.185085886E0
2.683102667E0,7.754692881E-1,3.669613141E-1,-2.220533646E0,2.380500556E0
2.693065667E0,7.489214672E-1,7.516841304E-1,-1.894430921E0,2.171354625E0
2.703029667E0,3.896972620E-1,8.276476479E-1,-1.389458653E0,1.663568433E0
2.712993667E0,-2.746266161E-1,5.376573265E-1,-4.864497507E-1,7.753247957E-1
2.722956667E0,-8.139520070E-1,2.717645502E-1,6.219104415E-1,1.059786034E0
2.732920667E0,-9.553585122E-1,5.297752798E-2,9.924522981E-1,1.378578278E0
2.742883667E0,-7.324391165E-1,-1.988053322E-3,1.000934269E0,1.240298522E0
2.752847667E0,-4.540146607E-1,-3.891848266E-2,8.191674310E-1,9.373789204E-1
2.762810667E0,-5.980195954E-2,3.337122917E-2,4.727579105E-1,4.776923228E-1
2.772774667E0,1.522339406E-1,1.051972568E-2,2.658348888E-2,1.548951877E-1
2.782737667E0,4.020384684E-2,-7.209909260E-2,-4.480414376E-1,4.555828775E-1
2.792701667E0,-3.794583488E-1,-1.285516208E-1,-6.795107782E-1,7.888276462E-1
2.802664667E0,-6.249516515E-1,-7.904558480E-2,-4.575083721E-1,7.785413808E-1
2.812628667E0,-3.186859708E-1,-6.222899258E-2,6.679362148E-2,3.315035194E-1
2.822591667E0,1.784906432E-2,-1.190136427E-1,4.621598321E-1,4.775715095E-1
2.832555667E0,9.091338605E-2,-8.441215932E-2,7.820150998E-1,7.917943374E-1
2.842519667E0,3.460350794E-1,2.161189377E-2,9.075662220E-1,9.715368225E-1
2.852482667E0,4.074841265E-1,1.520135736E-1,7.623854122E-1,8.777146214E-1
2.862446667E0,4.503004362E-1,2.906767845E-1,4.740752882E-1,7.155493378E-1
2.872409667E0,4.104390901E-1,3.012374407E-1,7.912189096E-2,5.152324873E-1
2.882373667E0,1.930795193E-1,2.933097857E-1,-8.440455794E-2,3.611571134E-1
2.892336667E0,1.296035349E-2,2.298569709E-1,-1.059807837E-2,2.304658697E-1
2.902300667E0,-2.324857694E-1,1.112871319E-1,1.372496465E-1,2.920135685E-1
2.912263667E0,-4.543810253E-1,-1.991795540E-2,2.981319845E-1,5.438212218E-1
2.922227667E0,-2.953148691E-1,-1.136581779E-2,5.855770129E-1,6.559272000E-1
2.932190667E0,3.642835086E-1,2.035018158E-1,6.367407346E-1,7.612845898E-1
2.942154667E0,7.539353815E-1,3.320429116E-1,3.124146858E-1,8.810641240E-1
2.952117667E0,4.463356586E-1,2.851476574E-1,-2.055997968E-2,5.300447334E-1
2.962081667E0,1.395878841E-1,1.892930818E-1,-1.778135356E-1,2.948462339E-1
2.972045667E0,9.937136522E-2,1.483304125E-1,-1.678364316E-1,2.450421336E-1
2.982008667E0,5.517049423E-2,1.026578110E-1,-9.828643262E-2,1.524553457E-1
2.991972667E0,-1.700353866E-2,5.527899206E-2,3.130306900E-2,6.576297909E-2
3.001935625E0,-3.677518348E-2,-3.077623487E-2,2.768142056E-1,2.809371730E-1
3.011899625E0,-1.316828779E-1,-1.326101732E-1,5.130978513E-1,5.460725624E-1
3.021862625E0,-1.484820747E-1,-1.971640188E-1,5.011084279E-1,5.585966643E-1
3.031826625E0,-8.190117306E-2,-1.478784227E-1,-4.922776705E-1,5.204931651E-1
3.041789625E0,-2.312488275E-1,6.885622680E-2,-3.773757899E-1,4.479170537E-1
3.051753625E0,1.028173669E-1,7.082498431E-2,1.662807798E-1,2.079348145E-1
3.061716625E0,6.732834935E-1,1.362664372E-1,4.883395708E-1,8.428254510E-1
3.071680625E0,1.065342007E0,3.298314947E-1,1.291711918E0,1.706535112E0
3.081643625E0,1.271210849E0,1.164619178E-1,1.460853741E0,1.940008776E0
3.091607625E0,1.095501434E0,8.570497870E-2,7.625804168E-1,1.337534159E0