"Time (s)","Linear Acceleration x (m/s^2)","Linear Acceleration y (m/s^2)","Linear Acceleration z (m/s^2)","Absolute acceleration (m/s^2)"
-2.170375010E-3,-8.250436635E-1,-9.685035646E-2,-1.600204584E-1,8.459808421E-1
7.792624994E-3,-7.910171076E-1,1.776050824E-1,-9.672610313E-1,1.262079844E0
1.775662499E-2,-1.614672788E-1,4.725754774E-1,-3.640593410E-1,6.180117051E-1
2.771962500E-2,3.926543451E-1,5.716793507E-1,3.725822425E-1,7.872815521E-1
3.768362499E-2,3.386061189E-1,5.253232098E-1,4.863026932E-1,7.919020696E-1
4.764762500E-2,1.122642016E-1,4.489550650E-1,5.624711555E-1,7.283801907E-1
5.761062499E-2,6.455143355E-2,3.651200259E-1,6.571229589E-1,7.545131569E-1
6.757462499E-2,-1.415757090E-4,2.505128449E-1,6.150914186E-1,6.641491992E-1
7.753762499E-2,-5.836909935E-3,2.418648130E-1,3.284813726E-1,4.079616029E-1
8.750162499E-2,1.135684962E-1,1.043213439E-1,6.801422775E-2,1.685428174E-1
9.746462500E-2,3.834202029E-2,-5.860664248E-3,1.021897414E-1,1.093032532E-1
1.074286250E-1,-8.042845130E-4,-1.404781866E-1,1.175009680E-1,1.831426910E-1
1.173926250E-1,1.026470668E-1,-2.970923495E-1,1.518106753E-1,3.490655606E-1
1.273556250E-1,-7.146832421E-3,-3.980766875E-1,2.419165608E-1,4.658752502E-1
1.373196250E-1,4.052368954E-2,-4.249154073E-1,-1.129705453E-1,4.415400513E-1
1.472826250E-1,4.916828625E-2,-6.592788273E-1,-4.734379417E-1,8.131479430E-1
1.572466250E-1,-2.492298927E-1,-8.387444937E-1,-3.764893520E-1,9.525503122E-1
1.672106250E-1,-3.898237080E-1,-9.719528371E-1,-2.759090567E-1,1.082949975E0
1.771736250E-1,-4.396316797E-1,-1.154597050E0,-3.823532322E-1,1.293276597E0
1.871376250E-1,-5.947108023E-1,-1.199991324E0,-4.658903557E-1,1.417996453E0
1.971006250E-1,-6.205492097E-1,-1.136757780E0,-3.131631294E-1,1.332430380E0
2.070646250E-1,-3.764149827E-1,-1.191520463E0,-3.028448403E-1,1.285738795E0
2.170276250E-1,-4.313867767E-1,-1.191193603E0,-5.130349937E-1,1.366836368E0
2.269916250E-1,-4.309938072E-1,-1.106128310E0,-4.599723887E-1,1.273126113E0
2.369556250E-1,-2.443712220E-1,-1.058848309E0,-4.548379487E-1,1.178029964E0
2.469186250E-1,-1.388120225E-1,-9.790712374E-1,-4.540877509E-1,1.088138296E0
2.568826250E-1,-1.858014900E-1,-9.311152983E-1,-4.035496813E-1,1.031673513E0
2.668456250E-1,-2.560135034E-1,-8.797948712E-1,-4.967279863E-1,1.042267059E0
2.768096250E-1,-3.080607028E-1,-7.717172760E-1,-5.533012596E-1,9.982941623E-1
2.867736250E-1,-2.741754669E-1,-5.905623490E-1,-3.657769606E-1,7.468124661E-1
2.967366250E-1,-1.113962556E-1,-3.957027179E-1,-1.135704696E-1,4.264833154E-1
3.067006250E-1,-1.200028454E-1,-9.635041952E-2,6.635712683E-3,1.540393421E-1
3.166636250E-1,-1.797591235E-1,3.311336696E-1,4.566441536E-2,3.795366761E-1
3.266276250E-1,-1.289140020E-1,9.274262899E-1,4.221780333E-1,1.027118608E0
3.365906250E-1,1.780553911E-2,1.822677691E0,9.954250225E-1,2.076858680E0
3.465546250E-1,2.088572441E-1,3.111373031E0,1.304834824E0,3.380363501E0
3.565186250E-1,9.832050727E-1,4.714448013E0,2.033071912E0,5.227436626E0
3.664816250E-1,2.121228044E0,6.227264205E0,3.316031718E0,7.367122521E0
3.764456250E-1,2.873094607E0,7.573035386E0,4.307941979E0,9.174088602E0
3.864086250E-1,3.127269563E0,8.725221044E0,4.832180530E0,1.045271572E1
3.963726250E-1,3.474500325E0,9.770148302E0,5.455496643E0,1.171709836E1
4.063366250E-1,4.123596227E0,1.064949060E1,6.250749546E0,1.301873902E1
4.162996250E-1,4.711309812E0,1.135440051E1,6.553606081E0,1.393085079E1
4.262636250E-1,5.057383118E0,1.175931903E1,6.524685752E0,1.436768012E1
4.362266250E-1,5.635633569E0,1.170558779E1,6.592631568E0,1.456859438E1
4.461906250E-1,6.505077115E0,1.101133852E1,6.484535261E0,1.433927480E1
4.561536250E-1,6.949322248E0,9.669738160E0,5.820547671E0,1.325427067E1
4.661176250E-1,6.713946674E0,7.681825172E0,4.970307552E0,1.134863318E1
4.760816250E-1,6.099131829E0,5.236852292E0,4.091185110E0,9.020079080E0
4.860446250E-1,5.386654449E0,2.494925058E0,3.204614486E0,6.746128608E0
4.960086250E-1,4.575808775E0,-4.015282989E-1,2.243644912E0,5.112063518E0
5.059716250E-1,3.745855278E0,-3.283509212E0,1.398924710E0,5.173959302E0
5.159356250E-1,2.813868452E0,-6.264637268E0,9.402047950E-1,6.931631902E0
5.258996250E-1,1.706850488E0,-9.233386184E0,4.109943563E-1,9.398812445E0
5.358626250E-1,5.117553306E-1,-1.191023566E1,-4.995983480E-1,1.193168913E1
5.458266250E-1,-6.371523786E-1,-1.417410799E1,-1.654812900E0,1.428459682E1
5.557896250E-1,-1.683998985E0,-1.624112095E1,-2.843838356E0,1.657399405E1
5.657536250E-1,-2.824681416E0,-1.821486028E1,-4.206343099E0,1.890643495E1
5.757166250E-1,-3.940885940E0,-1.996125988E1,-5.627750938E0,2.111052009E1
5.856806250E-1,-5.052661491E0,-2.139582980E1,-6.735213583E0,2.299291245E1
5.956446250E-1,-6.049531068E0,-2.254763539E1,-7.251689955E0,2.444544324E1
6.056076250E-1,-6.755393493E0,-2.330437970E1,-7.437556568E0,2.537807522E1
6.155716250E-1,-6.733088704E0,-2.346209314E1,-7.252253627E0,2.546368945E1
6.255346250E-1,-5.872637007E0,-2.302055585E1,-6.537851343E0,2.464096908E1
6.354986250E-1,-4.303226784E0,-2.202696890E1,-5.364028648E0,2.307548316E1
6.454626250E-1,-2.507182284E0,-2.071047531E1,-4.085667093E0,2.125799676E1
6.554256250E-1,-1.249568988E0,-1.922294248E1,-3.371574712E0,1.955634057E1
6.653896250E-1,-4.570598906E-1,-1.765290778E1,-3.247627189E0,1.795497533E1
6.753526250E-1,2.611585781E-1,-1.574088463E1,-2.714027245E0,1.597528080E1
6.853166250E-1,9.067215917E-1,-1.330544330E1,-1.425652333E0,1.341228728E1
6.952796250E-1,1.697770932E0,-1.004408509E1,2.245045759E-1,1.018903694E1
7.052436250E-1,2.874004726E0,-6.121095725E0,1.775693559E0,6.991480792E0
7.152076250E-1,3.985615386E0,-1.617938604E0,3.444176665E0,5.510463522E0
7.251706250E-1,5.039154423E0,3.773992957E0,5.518973431E0,8.372285702E0
7.351342083E-1,7.137749941E0,1.007456312E1,8.092554649E0,1.476257894E1
7.450972083E-1,1.070014737E1,1.618898249E1,1.054399279E1,2.208511019E1
7.550612083E-1,1.322499964E1,2.154441690E1,1.236137057E1,2.814011368E1
7.650252083E-1,1.400209694E1,2.562670665E1,1.337852531E1,3.212120408E1
7.749882083E-1,1.306446785E1,2.812054646E1,1.362081404E1,3.386697549E1
7.849522083E-1,1.145023755E1,2.921923360E1,1.341987565E1,3.413157797E1
7.949152083E-1,1.035996104E1,2.925293462E1,1.336461361E1,3.378869446E1
8.048792083E-1,9.953319933E0,2.824061085E1,1.352524715E1,3.285624734E1
8.148422083E-1,9.817795508E0,2.631738444E1,1.314800000E1,3.101392810E1
8.248062083E-1,9.696845267E0,2.335936224E1,1.210271197E1,2.803862067E1
8.347702083E-1,9.073121020E0,1.963223471E1,1.049210226E1,2.403810256E1
8.447332083E-1,8.218698971E0,1.572172097E1,8.943984092E0,1.986741992E1
8.546972083E-1,7.628376358E0,1.181342214E1,7.956151972E0,1.615702395E1
8.646602083E-1,7.322203283E0,7.851448220E0,7.527379741E0,1.311187804E1
8.746242083E-1,6.893579571E0,3.657851467E0,7.102003573E0,1.055176627E1
8.845882083E-1,6.215255193E0,-5.586733890E-1,6.295933321E0,8.864552411E0
8.945512083E-1,5.439915567E0,-4.651298084E0,5.195822965E0,8.844423753E0
9.045152083E-1,3.986332547E0,-8.544458465E0,4.065491860E0,1.026775738E1
9.144782083E-1,2.373294786E0,-1.194043536E1,3.103075247E0,1.256326394E1
9.244422083E-1,1.258643575E0,-1.444478964E1,1.995814916E0,1.463623615E1
9.344052083E-1,7.237619215E-1,-1.626691652E1,5.293045789E-1,1.629161035E1
9.443692083E-1,5.051295581E-1,-1.783898372E1,-8.911296988E-1,1.786836893E1
9.543332083E-1,3.475669768E-1,-1.943890939E1,-2.116260542E0,1.955685455E1
9.642962083E-1,-1.918290192E-1,-2.133703722E1,-3.276266266E0,2.158795674E1
9.742602083E-1,-1.661793014E0,-2.381492349E1,-4.317585207E0,2.426012528E1
9.842232083E-1,-3.995723467E0,-2.642237002E1,-4.982900115E0,2.718339083E1
9.941872083E-1,-6.378491328E0,-2.823511446E1,-5.405592996E0,2.944702491E1
1.004151208E0,-7.573587363E0,-2.885590166E1,-5.397257205E0,3.031753076E1
1.014114208E0,-7.494237723E0,-2.847113616E1,-4.809962865E0,2.983127446E1
1.024078208E0,-6.378273811E0,-2.705365881E1,-4.098182473E0,2.809587037E1
1.034041208E0,-3.991871322E0,-2.475121006E1,-3.536634593E0,2.531926580E1
1.044005208E0,-1.223997653E0,-2.213009040E1,-3.169476228E0,2.238938701E1
1.053969208E0,1.082247404E0,-1.954922179E1,-2.892513503E0,1.979166407E1
1.063932208E0,2.376974731E0,-1.710058914E1,-2.417176970E0,1.743338471E1
1.073896208E0,2.783702082E0,-1.463459728E1,-1.457851780E0,1.496815842E1
1.083859208E0,3.236351710E0,-1.199235162E1,3.280936657E-1,1.242570381E1
1.093823208E0,2.902145621E0,-8.642678239E0,2.365690482E0,9.418854910E0
1.103786208E0,3.014629970E0,-4.229351308E0,4.420942345E0,6.820567246E0
1.113750208E0,4.676030052E0,9.061430097E-1,6.213718545E0,7.829217736E0
1.123714208E0,6.733630741E0,6.730705379E0,7.602499505E0,1.218368485E1
1.133677208E0,9.228329512E0,1.272996150E1,9.119496456E0,1.817633629E1
1.143641208E0,1.197477840E1,1.806551304E1,9.805992318E0,2.378897990E1
1.153604208E0,1.306168691E1,2.254203142E1,9.451521242E0,2.771429413E1
1.163568208E0,1.276592422E1,2.577191406E1,9.188632180E0,3.019257089E1
1.173532208E0,1.226365658E1,2.765150153E1,9.293848148E0,3.164456388E1
1.183495208E0,1.169525810E1,2.850771166E1,9.182540551E0,3.215256968E1
1.193459208E0,1.106795945E1,2.869130020E1,8.895571486E0,3.201283532E1
1.203422208E0,1.088261909E1,2.831026990E1,8.839842258E0,3.159185957E1
1.213386208E0,1.117803445E1,2.713972281E1,8.691785495E0,3.061143812E1
1.223349208E0,1.146759208E1,2.477390895E1,8.066642713E0,2.846617216E1
1.233313208E0,1.106962006E1,2.129016126E1,7.125273153E0,2.503151957E1
1.243277208E0,1.016304085E1,1.726332885E1,6.186036072E0,2.096609082E1
1.253240208E0,9.331228228E0,1.299637936E1,5.867362819E0,1.704123362E1
1.263204208E0,8.745754126E0,8.505113720E0,6.033325510E0,1.360978293E1
1.273167208E0,7.967883241E0,3.840871071E0,5.823801647E0,1.059037863E1
1.283131208E0,6.757233027E0,-8.297386122E-1,4.776864116E0,8.316675726E0
1.293094208E0,5.177516502E0,-4.996083832E0,3.440860709E0,7.975403012E0
1.303058208E0,3.791298669E0,-8.580435798E0,2.745350779E0,9.774189224E0
1.313022208E0,2.843684574E0,-1.172029588E1,2.626927121E0,1.234312049E1
1.322985208E0,2.017800154E0,-1.438627187E1,2.440998527E0,1.473074369E1
1.332949208E0,1.211762354E0,-1.692701805E1,1.691903543E0,1.705446703E1
1.342912208E0,3.196351200E-1,-1.944418943E1,1.776326374E-1,1.944762768E1
1.352876208E0,-7.760801759E-1,-2.172528766E1,-1.798140435E0,2.181338427E1
1.362840208E0,-2.026381528E0,-2.370981160E1,-3.573815868E0,2.406311593E1
1.372803208E0,-3.271956283E0,-2.538899394E1,-4.787235907E0,2.604274062E1
1.382767208E0,-4.568719904E0,-2.666389745E1,-5.550019222E0,2.761592552E1
1.392730208E0,-5.581773112E0,-2.714928886E1,-5.883132759E0,2.833463124E1
1.402694208E0,-5.681745297E0,-2.678967808E1,-5.722075882E0,2.797697685E1
1.412658208E0,-4.959554522E0,-2.558959554E1,-5.497338148E0,2.663916867E1
1.422621208E0,-3.762792031E0,-2.389962625E1,-5.084304868E0,2.472247752E1
1.432585208E0,-2.141778960E0,-2.196860667E1,-4.619803226E0,2.255104162E1
1.442548208E0,-2.852271795E-2,-1.984700294E1,-4.086569903E0,2.026337566E1
1.452512208E0,1.757238285E0,-1.773568798E1,-3.481262630E0,1.815934206E1
1.462476208E0,2.413540294E0,-1.575016299E1,-2.921284143E0,1.619958987E1
1.472439208E0,2.316151994E0,-1.345497765E1,-1.989194698E0,1.379702429E1
1.482403208E0,2.213869574E0,-1.100030366E1,-5.626781470E-1,1.123496799E1
1.492366208E0,2.946599663E0,-8.285164272E0,1.247469692E0,8.881586413E0
1.502330208E0,3.828918777E0,-5.083945264E0,3.107553629E0,7.082655435E0
1.512293208E0,4.225558804E0,-1.073875653E0,4.903877335E0,6.561750455E0
1.522257208E0,4.842599684E0,4.125269115E0,7.111537458E0,9.541623656E0
1.532221208E0,7.035171652E0,9.769196960E0,9.856882975E0,1.555920922E1
1.542184208E0,9.596328122E0,1.528768566E1,1.219649663E1,2.178433786E1
1.552148208E0,1.080485697E1,2.059692940E1,1.409248788E1,2.719515857E1
1.562111208E0,1.147607522E1,2.465010936E1,1.525889163E1,3.117951199E1
1.572075208E0,1.199534773E1,2.754326489E1,1.507921020E1,3.361402071E1
1.582039208E0,1.206277782E1,2.974378030E1,1.418270808E1,3.509062958E1
1.592002208E0,1.205311589E1,3.051426089E1,1.264036929E1,3.515930398E1
1.601966208E0,1.182672924E1,2.955541576E1,1.045259146E1,3.350598146E1
1.611929208E0,1.128421054E1,2.720677868E1,8.465299444E0,3.064642733E1
1.621893208E0,1.054171589E1,2.369498072E1,6.706903703E0,2.678735602E1
1.631856208E0,9.684660839E0,1.974050410E1,4.938565357E0,2.253596205E1
1.641820208E0,8.709802521E0,1.565139767E1,3.887756092E0,1.832870853E1
1.651784208E0,7.901603297E0,1.144500897E1,3.762658714E0,1.440767731E1
1.661747208E0,7.107718642E0,7.091546997E0,4.480848239E0,1.099489445E1
1.671711208E0,6.078740249E0,2.659555169E0,5.148067585E0,8.398030518E0
1.681674208E0,4.836765917E0,-1.609322732E0,5.097962794E0,7.209261324E0
1.691638208E0,3.243908944E0,-5.551003309E0,4.891430367E0,8.078531674E0
1.701601208E0,1.794956334E0,-8.965921676E0,4.429038985E0,1.016001998E1
1.711565208E0,9.233955118E-1,-1.159795926E1,3.501270633E0,1.215007055E1
1.721529208E0,5.993489599E-1,-1.356453693E1,2.063767748E0,1.373371831E1
1.731492208E0,3.926317602E-1,-1.514862834E1,2.853289394E-1,1.515640172E1
1.741455958E0,1.356425393E-1,-1.669027833E1,-1.790661846E0,1.678660952E1
1.751418958E0,-3.076936439E-1,-1.830347601E1,-3.795410138E0,1.869537503E1
1.761382958E0,-9.409307268E-1,-2.014188505E1,-5.282096293E0,2.084421803E1
1.771346958E0,-1.806512186E0,-2.212806492E1,-6.036508734E0,2.300769830E1
1.781309958E0,-3.208509901E0,-2.402249029E1,-6.081490195E0,2.498717868E1
1.791273958E0,-4.842970982E0,-2.536389769E1,-5.382476614E0,2.637712510E1
1.801236958E0,-6.213412151E0,-2.608085989E1,-4.162236382E0,2.713193606E1
1.811200958E0,-6.662967725E0,-2.588523778E1,-2.967210513E0,2.689321498E1
1.821164958E0,-5.781280695E0,-2.465492045E1,-2.090987706E0,2.540985121E1
1.831127958E0,-3.983152539E0,-2.274499295E1,-1.670184646E0,2.315145190E1
1.841091958E0,-2.137334492E0,-2.062947734E1,-1.558272446E0,2.079835924E1
1.851054958E0,-5.776318163E-1,-1.858562638E1,-1.475144920E0,1.865302171E1
1.861018958E0,7.844759005E-1,-1.645794038E1,-1.168745558E0,1.651802561E1
1.870981958E0,1.444611930E0,-1.436375191E1,-2.550736366E-1,1.443846720E1
1.880945958E0,1.634245173E0,-1.197992044E1,1.170468805E0,1.214739677E1
1.890909958E0,2.304245017E0,-8.913777961E0,2.504651316E0,9.541397217E0
1.900872958E0,3.169259588E0,-5.007365450E0,3.962194948E0,7.128597611E0
1.910836958E0,4.309359637E0,-4.203580874E-1,5.634356537E0,7.105860609E0
1.920799958E0,5.752458014E0,4.697018632E0,7.151383894E0,1.030994902E1
1.930763958E0,8.170071772E0,1.050930945E1,8.607589683E0,1.585201117E1
1.940727958E0,1.132040831E1,1.603606845E1,9.638318732E0,2.186788338E1
1.950690958E0,1.277646324E1,2.009413435E1,9.899410944E0,2.578779915E1
1.960654958E0,1.175046517E1,2.293802123E1,9.334882153E0,2.741106117E1
1.970617958E0,1.028339993E1,2.538983126E1,8.994023979E0,2.883200154E1
1.980581958E0,1.063508423E1,2.742110252E1,9.426988664E0,3.088510961E1
1.990544958E0,1.200930153E1,2.895297011E1,1.008441334E1,3.292708906E1
2.000508958E0,1.304082054E1,2.931640497E1,9.736994004E0,3.353093576E1
2.010472958E0,1.309863313E1,2.810018646E1,8.166968070E0,3.206078658E1
2.020435958E0,1.237081499E1,2.511788662E1,6.313726982E0,2.870206334E1
2.030399958E0,1.122596525E1,2.085665804E1,4.735700887E0,2.415469610E1
2.040362958E0,9.857549558E0,1.631867841E1,3.867974962E0,1.945332308E1
2.050326958E0,8.715357960E0,1.178530756E1,3.649220392E0,1.510522255E1
2.060289958E0,7.512492145E0,7.244940514E0,3.825105808E0,1.111567073E1
2.070253958E0,6.078083607E0,2.826292031E0,4.278439853E0,7.952111327E0
2.080217958E0,4.740429531E0,-1.393830031E0,4.773769185E0,6.870466252E0
2.090180958E0,3.295039337E0,-5.321766728E0,5.074690876E0,8.057975727E0
2.100144958E0,1.669618050E0,-8.790306401E0,4.927736313E0,1.021468043E1
2.110107958E0,1.959795190E-1,-1.164080532E1,4.212083895E0,1.238096956E1
2.120071958E0,-7.065722769E-1,-1.381181334E1,3.101231035E0,1.417332234E1
2.130035958E0,-9.619944441E-1,-1.548753179E1,1.608171415E0,1.560049005E1
2.139998958E0,-9.978247198E-1,-1.695779078E1,-5.430361801E-1,1.699579979E1
2.149962958E0,-1.266895165E0,-1.854563377E1,-2.968644835E0,1.882440988E1
2.159925958E0,-2.041044006E0,-2.031970355E1,-5.104697617E0,2.105027674E1
2.169889958E0,-3.186385206E0,-2.202951595E1,-6.462391856E0,2.317790181E1
2.179853958E0,-4.271587793E0,-2.346340292E1,-6.888906476E0,2.482407644E1
2.189816958E0,-5.209027147E0,-2.438438616E1,-6.328239187E0,2.572506294E1
2.199780958E0,-5.584734142E0,-2.454209960E1,-4.993925625E0,2.566014811E1
2.209743958E0,-5.035873550E0,-2.385454188E1,-3.082573155E0,2.457440636E1
2.219707958E0,-4.055274435E0,-2.247682327E1,-1.493516872E0,2.288849990E1
2.229671958E0,-2.911884744E0,-2.070021930E1,-9.067265618E-1,2.092367809E1
2.239634958E0,-1.603704727E0,-1.862588446E1,-1.235588003E0,1.873558429E1
2.249598958E0,-1.769075096E-1,-1.629434464E1,-1.781194035E0,1.639236456E1
2.259561958E0,1.123366194E0,-1.360393430E1,-1.951417592E0,1.378901776E1
2.269525958E0,2.325617905E0,-1.043607541E1,-1.910649635E0,1.086143410E1
2.279488958E0,3.454247909E0,-6.942721910E0,-1.293937953E0,7.861774073E0
2.289452958E0,4.836343748E0,-3.411366184E0,-3.494133814E-1,5.928720756E0
2.299416958E0,5.998196608E0,1.470165431E-1,6.263642657E-1,6.032603800E0
2.309379958E0,6.376585135E0,3.797497010E0,1.785359007E0,7.633434896E0
2.319343958E0,6.550549741E0,7.819580895E0,3.368757816E0,1.074262894E1
2.329306958E0,7.995336503E0,1.123654403E1,4.839528434E0,1.461527841E1
2.339270958E0,9.442597221E0,1.361373774E1,5.495129655E0,1.745545610E1
2.349234958E0,9.244859006E0,1.468861736E1,5.294051510E0,1.814524399E1
2.359197958E0,7.382680449E0,1.396279547E1,4.277395540E0,1.636336581E1
2.369161958E0,4.786306785E0,1.234155202E1,3.594910283E0,1.371663292E1
2.379124958E0,2.818634810E0,1.157679468E1,4.588738431E0,1.276806163E1
2.389088958E0,2.653671408E0,1.097739894E1,6.548655244E0,1.305488970E1
2.399051958E0,3.000818262E0,1.008809825E1,7.532375017E0,1.294261604E1
2.409015958E0,2.627024477E0,9.031898734E0,7.101838682E0,1.178611747E1
2.418979958E0,2.065001803E0,7.755604169E0,6.041125696E0,1.004533863E1
2.428942958E0,1.753626460E0,6.438697768E0,5.034237499E0,8.359161556E0
2.438906958E0,1.693485800E0,5.211805159E0,4.153038127E0,6.875938689E0
2.448869958E0,1.561587671E0,4.038385338E0,3.093007511E0,5.321072040E0
2.458833958E0,9.066444084E-1,2.940778175E0,2.079161713E0,3.713905463E0
2.468796958E0,2.643986482E-1,1.884500302E0,1.300030167E0,2.304631526E0
2.478760958E0,-5.067917023E-2,7.425507796E-1,6.594267619E-1,9.943810602E-1
2.488724958E0,-5.311577443E-1,-2.844886762E-1,4.354181761E-1,7.434052355E-1
2.498687958E0,-7.842536332E-1,-9.995066714E-1,4.677544481E-1,1.353832180E0
2.508651958E0,-7.382990498E-1,-1.478584837E0,2.006062746E-1,1.664794728E0
2.518614958E0,-6.271105166E-1,-1.745475149E0,-2.054083005E-1,1.866050284E0
2.528578958E0,-5.064042512E-1,-1.802573209E0,-5.731168887E-1,1.958105822E0
2.538542958E0,-3.487595165E-1,-1.752315221E0,-1.032327385E0,2.063478051E0
2.548505958E0,-9.962416593E-2,-1.577076507E0,-1.168871858E0,1.965542343E0
2.558469958E0,1.978911200E-1,-1.243058406E0,-9.998317766E-1,1.607488313E0
2.568432958E0,3.195775250E-1,-9.837092489E-1,-9.887489641E-1,1.430887205E0
2.578396958E0,2.990761088E-1,-6.746844864E-1,-1.064186232E0,1.295043633E0
2.588359958E0,4.444686792E-1,-3.812086397E-1,-1.134907136E0,1.277061722E0
2.598323958E0,6.304001601E-1,-1.570357472E-1,-1.005706767E0,1.197293067E0
2.608287958E0,6.072216876E-1,-1.876254559E-2,-7.379338181E-1,9.558328991E-1
2.618250958E0,5.032610804E-1,-2.808885455E-2,-7.647532421E-1,9.159193306E-1
2.628214958E0,3.351442748E-1,-1.443548906E-1,-7.385232174E-1,8.237575870E-1
2.638177958E0,1.519196527E-1,-2.631592029E-1,-5.257325149E-1,6.072289718E-1
2.648141958E0,7.043230724E-2,-2.959790397E-1,-3.759332818E-1,4.836218917E-1
2.658105958E0,9.606492922E-2,-2.228496677E-1,-2.702512908E-1,3.632164715E-1
2.668068958E0,2.467454108E-1,-1.655609876E-1,-1.740809655E-1,3.443804886E-1
2.678032958E0,2.257176904E-1,-1.130909979E-1,-7.109687984E-2,2.622838460E-1
2.687995958E0,3.051173607E-1,-2.076989472E-2,1.746624711E-1,3.521859894E-1
2.697959958E0,3.753845571E-1,-4.317759454E-2,2.890489197E-1,4.757385294E-1
2.707922958E0,2.539684397E-1,2.077691138E-2,1.602908921E-1,3.010395631E-1
2.717886958E0,1.115803698E-1,1.622894704E-2,1.954911304E-1,2.256775126E-1
2.727850958E0,1.175030876E-2,-5.435571671E-2,3.450629067E-1,3.495154121E-1
2.737814625E0,1.023567891E-1,-6.092623293E-2,1.854751423E-1,2.204312740E-1
2.747778625E0,4.922420025E-2,-1.649832827E-1,-1.565822956E-1,2.327241301E-1
2.757741625E0,-1.765451284E-1,-1.391456062E-1,-1.814671683E-1,2.888944708E-1
2.767705625E0,-1.479141273E-1,-1.567773002E-1,4.180466831E-2,2.195571480E-1
2.777669625E0,-1.869992191E-1,-1.764052337E-1,2.067891204E-1,3.299231043E-1
2.787632625E0,-2.412373702E-1,-1.402074605E-1,1.284045634E-1,3.071503421E-1
2.797596625E0,-1.084947210E-2,-9.359170318E-2,-5.590066803E-1,5.668911593E-1
2.807559625E0,-1.370220802E-1,-7.336443007E-2,-8.499366492E-1,8.640310745E-1
2.817523625E0,-2.506906368E-1,-7.596819520E-2,-5.832591766E-1,6.393811298E-1
2.827486625E0,-8.640964128E-2,4.410671711E-2,-3.273540294E-1,3.414274289E-1
2.837450625E0,1.236180326E-1,1.670485193E-1,-2.528730735E-1,3.273093599E-1
2.847414625E0,1.030022851E-1,1.804152542E-1,-3.361745542E-1,3.951866213E-1
2.857377625E0,-7.607655142E-2,9.675153852E-2,-4.203937554E-1,4.380404222E-1
2.867341625E0,-2.800519551E-1,1.546062291E-2,-5.301769835E-1,5.997964340E-1
2.877304625E0,-3.256275294E-1,-9.367239475E-3,-6.801095331E-1,7.541021217E-1
2.887268625E0,2.348548785E-2,1.464955562E-1,-1.069809499E-1,1.829137496E-1
2.897232625E0,5.368444904E-1,1.882581246E-1,6.989138862E-1,9.011790880E-1
2.907195625E0,3.373039805E-1,1.965892375E-1,1.814776933E-1,4.305292751E-1
2.917159625E0,-7.183717389E-2,2.220889449E-1,-2.844763970E-1,3.679821999E-1
2.927122625E0,-1.130500674E-1,2.224748611E-1,-2.231829590E-1,3.347924951E-1
2.937086625E0,7.247210842E-2,3.416954952E-1,-3.190065444E-2,3.507501529E-1
2.947049625E0,2.369703280E-1,4.124620074E-1,-3.357295811E-2,4.768720871E-1
2.957013625E0,2.448089591E-1,3.646621889E-1,-7.072733581E-2,4.448733466E-1
2.966977625E0,-1.098454278E-1,1.785318661E-1,-3.734850526E-2,2.129191303E-1
2.976940625E0,-3.982991009E-1,1.243018645E-1,1.294135004E-2,4.174453328E-1
2.986904625E0,-4.319944851E-1,1.141680551E-1,-2.738777339E-2,4.476646849E-1
2.996867625E0,-2.684991726E-1,1.618222779E-1,1.772489870E-1,3.601325571E-1
3.006831625E0,-9.496813774E-2,2.719282722E-1,3.227092937E-1,4.325566098E-1
3.016795625E0,-1.609856875E-1,2.930653721E-1,2.591439199E-1,4.230357847E-1
3.026758625E0,-2.267076606E-1,2.912474728E-1,1.353700590E-1,3.931240347E-1
3.036722625E0,8.973283321E-3,3.472906959E-1,2.040885839E-1,4.029187230E-1
3.046685625E0,3.182646789E-2,3.807344306E-1,3.014578807E-1,4.866708174E-1
3.056649625E0,-1.259724140E-1,3.362090528E-1,2.562934023E-1,4.411257013E-1
3.066612625E0,-2.956981540E-1,3.140486902E-1,5.564385831E-2,4.349255305E-1
3.076576625E0,-3.593894622E-1,3.187293863E-1,-2.038766223E-1,5.218379867E-1
3.086540625E0,-3.289059535E-1,3.491045022E-1,-2.517173713E-1,5.416776853E-1
3.096503625E0,-1.508317783E-1,3.962336451E-1,-1.923690096E-1,4.655718663E-1
3.106467625E0,-1.234120645E-2,3.879738683E-1,-3.539085746E-2,3.897801183E-1
3.116430625E0,1.234138186E-1,3.590599716E-1,1.957115704E-1,4.271510887E-1
3.126394625E0,3.947298143E-1,4.173035020E-1,3.732505792E-1,6.850327247E-1
3.136358625E0,2.648936333E-1,3.534981000E-1,3.394478256E-1,5.570945790E-1
3.146321625E0,-7.401851423E-2,2.034643936E-1,1.621196088E-1,2.704796988E-1
3.156285625E0,-2.619945838E-1,1.001856083E-1,-2.366660535E-3,2.805065402E-1
3.166248625E0,-2.663137027E-1,3.103058875E-2,-1.207300928E-1,2.940436039E-1
3.176212625E0,-2.498191459E-1,-4.666662812E-3,-1.055966216E-1,2.712600779E-1
3.186175625E0,-3.276655398E-1,-6.226992309E-2,-1.309890327E-1,3.583299820E-1
3.196139625E0,-4.248148352E-1,-1.100685722E-1,-3.132148772E-1,5.391533122E-1
3.206103625E0,-4.176142815E-1,-1.502629173E-1,-4.826867750E-1,6.557188080E-1
3.216066625E0,-9.198730029E-2,-1.333100849E-1,-2.664190257E-1,3.117889340E-1
3.226030625E0,3.021200048E-1,-8.728372693E-2,2.015470916E-1,3.735186427E-1
3.235993625E0,4.540406077E-1,-5.281380594E-2,3.120518661E-1,5.534605123E-1
3.245957625E0,3.055268119E-1,-1.524737495E-1,6.199188799E-2,3.470415988E-1
3.255920625E0,6.629573107E-2,-3.022846770E-1,1.074577904E-1,3.275947598E-1
3.265884625E0,-5.015003376E-2,-3.855659848E-1,3.695791125E-1,5.364372051E-1
3.275848625E0,-4.422468469E-2,-4.385511142E-1,4.755648664E-1,6.484171841E-1
3.285811625E0,-1.550082251E-2,-4.630211270E-1,4.340759477E-1,6.348627946E-1
3.295775625E0,-9.158121116E-2,-4.649109471E-1,3.709377131E-1,6.017674750E-1
3.305738625E0,-7.708179742E-2,-4.756727475E-1,2.196883705E-1,5.295933783E-1
3.315702625E0,-4.362388328E-2,-4.976834214E-1,7.615355194E-2,5.053624388E-1
3.325666625E0,-4.412689000E-2,-4.198365158E-1,2.332351997E-1,4.822950765E-1
3.335629625E0,1.270859431E-1,-3.235697114E-1,3.378114823E-1,4.847316708E-1
3.345593625E0,2.920471526E-1,-2.921087676E-1,1.629028434E-1,4.440229812E-1
3.355556625E0,1.809909126E-1,-2.248476613E-1,1.310524750E-1,3.169998934E-1
3.365520625E0,1.146772014E-1,-2.116668677E-1,-1.649952695E-1,2.918512675E-1
3.375483625E0,-2.592896618E-2,-3.055731511E-1,-3.290842205E-1,4.498262844E-1
3.385447625E0,-7.461281061E-2,-3.701825452E-1,-2.757719395E-1,4.676027704E-1
3.395411625E0,-3.556166925E-2,-4.159668285E-1,-1.649417675E-1,4.488862009E-1
3.405374625E0,-1.061237481E-1,-4.000004214E-1,-2.825374603E-3,4.138484865E-1
3.415338625E0,-1.505098891E-1,-3.812355369E-1,1.761532187E-2,4.102487793E-1
3.425301625E0,-9.455612831E-2,-2.989839238E-1,-6.296866536E-2,3.198394924E-1
3.435265625E0,1.314742785E-1,-1.461745441E-1,-8.278897226E-2,2.133225191E-1
3.445229625E0,2.044413172E-1,-1.057235062E-1,-2.502643383E-1,3.400087513E-1
3.455192625E0,9.987351313E-2,-5.246297300E-2,-3.958717024E-1,4.116327088E-1
3.465156625E0,3.497474767E-1,4.714200675E-2,2.099033475E-2,3.535339593E-1
3.475119625E0,4.527773899E-1,-1.057188284E-1,9.351712194E-1,1.044379742E0
3.485083625E0,2.507583549E-1,-7.008063376E-2,3.964374205E-1,4.742928169E-1
3.495046625E0,1.567185357E-1,7.447013855E-3,1.066613996E-1,1.897177156E-1