"Time (s)","Linear Acceleration x (m/s^2)","Linear Acceleration y (m/s^2)","Linear Acceleration z (m/s^2)","Absolute acceleration (m/s^2)"
6.451250083E-4,-1.189217829E0,-3.442524827E-1,1.986372247E-1,1.253876216E0
1.060912501E-2,-1.044902846E0,-3.042996275E-1,-3.897125378E-1,1.155982735E0
2.057212501E-2,-8.169046316E-1,-6.787798762E-2,-7.593486607E-1,1.117385782E0
3.053612501E-2,-4.868230954E-1,3.284556448E-2,-5.145830441E-1,7.091341668E-1
4.049912501E-2,-2.565131114E-1,3.918219209E-3,-5.716384202E-2,2.628346127E-1
5.046312501E-2,-3.898784526E-2,-8.836780071E-2,3.430356771E-1,3.563739553E-1
6.042712500E-2,-9.114106201E-2,-3.104444665E-1,4.302325729E-1,5.383145239E-1
7.039012501E-2,-3.015626190E-1,-3.147135186E-1,2.262556708E-1,4.910969767E-1
8.035412501E-2,-8.876935825E-2,-2.043911773E-1,-2.466647923E-1,3.324143079E-1
9.031712501E-2,8.627296261E-2,-2.011547434E-1,-6.054619315E-1,6.438092927E-1
1.002811250E-1,6.057276875E-3,-2.366262925E-1,-3.967464459E-1,4.619918129E-1
1.102441250E-1,-1.601018809E-2,-4.061335659E-1,-4.296592534E-2,4.087136775E-1
1.202081250E-1,-3.779903322E-2,-5.394582689E-1,5.489366055E-2,5.435598447E-1
1.301721250E-1,3.903747350E-4,-6.472136825E-1,9.112066984E-2,6.535967256E-1
1.401351250E-1,-6.521238819E-2,-7.761219835E-1,8.096639514E-3,7.788989308E-1
1.500991250E-1,-7.838448398E-2,-7.654309344E-1,-9.725089073E-3,7.694954321E-1
1.600621250E-1,-2.002139995E-1,-8.668836343E-1,-4.223765463E-2,8.907058440E-1
1.700261250E-1,-3.413391805E-1,-9.040122843E-1,-2.371788543E-1,9.949896760E-1
1.799891250E-1,-2.616868740E-1,-7.212137049E-1,-3.319025785E-1,8.359357331E-1
1.899531250E-1,-4.060087278E-2,-5.801449496E-1,-3.407730970E-1,6.740496250E-1
1.999171250E-1,4.723746255E-3,-3.797064900E-1,-3.206744626E-1,4.970225783E-1
2.098801250E-1,2.278567846E-1,-4.988961339E-2,-2.962833872E-1,3.770829264E-1
2.198441250E-1,3.557009654E-1,3.311284071E-1,-2.370396906E-1,5.407004843E-1
2.298071250E-1,2.197171681E-1,9.096501696E-1,-8.245801985E-2,9.394351441E-1
2.397711250E-1,-6.474336840E-2,1.646320404E0,8.975709915E-2,1.650036034E0
2.497351250E-1,-9.743083879E-2,2.841900004E0,4.617554972E-1,2.880816992E0
2.596981250E-1,5.131384163E-1,4.600638392E0,1.109838368E0,4.760349341E0
2.696621250E-1,1.406325092E0,6.530318375E0,1.697154928E0,6.892252404E0
2.796251250E-1,2.148466713E0,8.230617936E0,2.290861617E0,8.809485102E0
2.895891250E-1,2.575412274E0,9.775778586E0,2.825408225E0,1.049673887E1
2.995521250E-1,3.030438795E0,1.130576220E1,3.551500262E0,1.223180168E1
3.095161250E-1,3.443796596E0,1.251362856E1,4.462816303E0,1.372469905E1
3.194801250E-1,3.755476579E0,1.332668623E1,5.243701136E0,1.480542373E1
3.294431250E-1,4.039371763E0,1.373831501E1,5.644882110E0,1.539228760E1
3.394071250E-1,4.021209434E0,1.359932553E1,6.126885638E0,1.544831731E1
3.493701250E-1,4.126082755E0,1.300764811E1,6.575099276E0,1.514778528E1
3.593341250E-1,4.525433258E0,1.196799914E1,6.668001593E0,1.442826375E1
3.692971250E-1,4.731748170E0,1.019612206E1,6.571022598E0,1.302031811E1
3.792611250E-1,4.314003203E0,7.907299654E0,6.249026957E0,1.096295350E1
3.892251250E-1,4.152400196E0,4.938590500E0,5.597222625E0,8.541721409E0
3.991881250E-1,3.359411334E0,2.344939299E0,5.077697514E0,6.524369462E0
4.091521250E-1,2.583083821E0,-1.066567218E-1,4.561525782E0,5.243206570E0
4.191151250E-1,2.262974784E0,-2.636251675E0,4.180767378E0,5.435962991E0
4.290791250E-1,1.463392309E0,-5.326353868E0,3.763604794E0,6.684031988E0
4.390421250E-1,3.800269175E-1,-8.028318892E0,3.237770537E0,8.664957169E0
4.490061250E-1,-3.733344868E-1,-1.031518540E1,2.652121603E0,1.065721246E1
4.589701250E-1,-5.861444852E-1,-1.215273841E1,1.963500863E0,1.232428301E1
4.689331250E-1,-5.353827596E-1,-1.336107488E1,1.253315592E0,1.343040418E1
4.788971250E-1,-4.754441214E-1,-1.422000279E1,6.338103294E-1,1.424205891E1
4.888601250E-1,-7.495615911E-1,-1.525485003E1,-4.128134251E-3,1.527325470E1
4.988241250E-1,-1.477535847E0,-1.655989711E1,-1.315493714E0,1.667764456E1
5.087871250E-1,-2.206373444E0,-1.754461968E1,-2.770003810E0,1.789845481E1
5.187511250E-1,-2.608379753E0,-1.814022642E1,-3.687064741E0,1.869400722E1
5.287151250E-1,-2.356770555E0,-1.855394383E1,-4.379106102E0,1.920884612E1
5.386781250E-1,-2.000623666E0,-1.889119836E1,-4.748197557E0,1.958124742E1
5.486421250E-1,-1.632396137E0,-1.907658083E1,-4.754124295E0,1.972770516E1
5.586051250E-1,-1.553238286E0,-1.915907452E1,-4.446154954E0,1.972944448E1
5.685691250E-1,-1.673728351E0,-1.906344681E1,-4.040900810E0,1.955876403E1
5.785331250E-1,-1.435909811E0,-1.870063527E1,-3.748893491E0,1.912667767E1
5.884961250E-1,-6.679987800E-1,-1.810198563E1,-3.128024147E0,1.838240031E1
5.984601250E-1,1.941208354E-1,-1.717435294E1,-2.099308294E0,1.730327070E1
6.084231250E-1,8.153872061E-1,-1.604740737E1,-1.195507606E0,1.611252240E1
6.183871250E-1,1.131067562E0,-1.473582310E1,-8.148036540E-1,1.480161145E1
6.283501250E-1,1.441502965E0,-1.321063537E1,-2.248031859E-1,1.329095009E1
6.383141250E-1,1.989516003E0,-1.131653394E1,7.911844110E-1,1.151729513E1
6.482781250E-1,2.888004715E0,-9.241249520E0,1.627503480E0,9.817842507E0
6.582411250E-1,3.598478254E0,-6.922919145E0,2.340283746E0,8.145721776E0
6.682051250E-1,4.031394407E0,-3.733675820E0,3.111715385E0,6.314685157E0
6.781681250E-1,4.521891600E0,3.737616259E-1,4.064401939E0,6.091515781E0
6.881321250E-1,5.496963342E0,5.329759287E0,4.927517627E0,9.105128775E0
6.980961250E-1,6.982966542E0,1.070465089E1,5.531237966E0,1.392644843E1
7.080591250E-1,8.754753576E0,1.576113471E1,6.019719624E0,1.900779056E1
7.180231250E-1,9.853054218E0,2.019269735E1,6.595685568E0,2.341646369E1
7.279861250E-1,9.779748845E0,2.371205927E1,7.376233310E0,2.668921243E1
7.379501250E-1,9.210481471E0,2.620577044E1,8.234054929E0,2.897196980E1
7.479123750E-1,8.801217306E0,2.775652922E1,9.032589290E0,3.048727619E1
7.578763750E-1,8.646139791E0,2.844089202E1,9.892058655E0,3.132878702E1
7.678403750E-1,8.490008023E0,2.789593152E1,1.042574455E1,3.096706930E1
7.778033750E-1,8.202190527E0,2.641293730E1,1.013896201E1,2.945704902E1
7.877673750E-1,7.829006606E0,2.431772556E1,9.297738301E0,2.718626599E1
7.977303750E-1,7.751308220E0,2.176466982E1,8.235717877E0,2.452775327E1
8.076943750E-1,7.871104805E0,1.894499976E1,7.236431646E0,2.175392493E1
8.176573750E-1,7.838867936E0,1.582023135E1,6.707704187E0,1.888705551E1
8.276213750E-1,7.904697059E0,1.232775025E1,6.449850748E0,1.600181979E1
8.375853750E-1,7.800970377E0,8.433200569E0,6.146337571E0,1.302887087E1
8.475483750E-1,7.168953608E0,4.095981581E0,5.579218463E0,9.964870275E0
8.575123750E-1,5.808219402E0,-1.785920924E-1,4.900112312E0,7.601210984E0
8.674753750E-1,4.260117895E0,-3.927429158E0,4.564629484E0,7.376255594E0
8.774393750E-1,3.169705439E0,-7.025688053E0,4.677521676E0,9.015904515E0
8.874033750E-1,2.384688963E0,-9.840637071E0,4.760248083E0,1.118860319E1
8.973663750E-1,1.199594006E0,-1.217313233E1,4.228127486E0,1.294222695E1
9.073303750E-1,2.037538308E-1,-1.378652764E1,3.372960502E0,1.419460188E1
9.172933750E-1,-3.421594718E-1,-1.514770097E1,2.373181350E0,1.533629380E1
9.272573750E-1,-6.598366517E-1,-1.639795029E1,1.132134386E0,1.645022451E1
9.372203750E-1,-7.827284601E-1,-1.748685621E1,-1.693821430E-1,1.750518478E1
9.471843750E-1,-1.152873583E0,-1.877811906E1,-1.263411541E0,1.885585006E1
9.571483750E-1,-1.605874044E0,-2.004767003E1,-2.244265155E0,2.023671493E1
9.671113750E-1,-2.079310524E0,-2.098318010E1,-3.018687061E0,2.130093544E1
9.770753750E-1,-2.523351004E0,-2.150042245E1,-3.489946915E0,2.192749861E1
9.870383750E-1,-2.775439966E0,-2.171445627E1,-3.426246178E0,2.215761362E1
9.970023750E-1,-2.511667683E0,-2.146118296E1,-2.757034686E0,2.178283932E1
1.006966375E0,-1.804766208E0,-2.062786117E1,-2.168488018E0,2.081989861E1
1.016929375E0,-1.097612425E0,-1.939959038E1,-2.102992040E0,1.954408952E1
1.026893375E0,-2.001130620E-1,-1.798374207E1,-2.049040804E0,1.810120417E1
1.036856375E0,6.362440136E-1,-1.634858926E1,-1.643324876E0,1.644328720E1
1.046820375E0,1.342851959E0,-1.463958963E1,-1.317559096E0,1.475997283E1
1.056783375E0,2.069295706E0,-1.296470967E1,-1.114844316E0,1.317606009E1
1.066747375E0,2.741221768E0,-1.136151891E1,-7.688901472E-1,1.171279646E1
1.076711375E0,2.922664378E0,-9.921038625E0,-1.347126858E-1,1.034345793E1
1.086674375E0,2.397046176E0,-8.399140538E0,8.018905898E-1,8.771226862E0
1.096638375E0,1.951929370E0,-6.167952973E0,1.977538859E0,6.764934004E0
1.106601375E0,2.398096190E0,-2.778690434E0,3.268420472E0,4.914728705E0
1.116565375E0,4.166565368E0,1.047795317E0,4.221226602E0,6.023030468E0
1.126528375E0,5.635629476E0,5.120135436E0,4.666071074E0,8.930191809E0
1.136492375E0,6.800401851E0,9.054423963E0,5.170880497E0,1.244853661E1
1.146456375E0,7.522827684E0,1.215906860E1,5.281612728E0,1.524241840E1
1.156419375E0,7.669134375E0,1.541226643E1,5.258247839E0,1.800007636E1
1.166383375E0,8.222079831E0,1.881507229E1,5.440789141E0,2.124174495E1
1.176346375E0,8.908958101E0,2.189047384E1,5.575852806E0,2.428276166E1
1.186310375E0,9.757656895E0,2.457334244E1,5.542624834E0,2.701447236E1
1.196273375E0,1.056054392E1,2.635429206E1,5.251156921E0,2.887297087E1
1.206237375E0,1.068859444E1,2.670659148E1,4.573786808E0,2.912743733E1
1.216201375E0,1.022801862E1,2.579717403E1,3.809271548E0,2.801101752E1
1.226164375E0,9.541310501E0,2.371025599E1,3.167882861E0,2.575360804E1
1.236128375E0,8.780272579E0,2.091836956E1,2.745708629E0,2.285192087E1
1.246091375E0,8.076515737E0,1.777380949E1,2.766042321E0,1.971774328E1
1.256055375E0,7.323627664E0,1.452708686E1,3.244013025E0,1.658901430E1
1.266019375E0,6.869939863E0,1.120811604E1,3.968752016E0,1.373204032E1
1.275982375E0,6.543340709E0,7.651012684E0,4.732045208E0,1.112409792E1
1.285946375E0,5.864547384E0,4.083641033E0,5.120790324E0,8.791560365E0
1.295909375E0,4.867339838E0,5.268867552E-1,5.258692228E0,7.184876526E0
1.305873375E0,3.691717078E0,-2.945773451E0,5.174141489E0,7.005576091E0
1.315836375E0,2.714139512E0,-5.974155781E0,4.343638061E0,7.869198319E0
1.325800375E0,1.988662309E0,-8.248428555E0,2.916309332E0,8.971968096E0
1.335764375E0,1.408842465E0,-1.002797017E1,1.535990754E0,1.024227955E1
1.345727375E0,1.120135315E0,-1.147378078E1,4.875279772E-1,1.153863215E1
1.355691375E0,9.066549334E-1,-1.265184036E1,-2.489069071E-1,1.268672702E1
1.365654375E0,6.667147315E-1,-1.370513206E1,-6.903418681E-1,1.373869445E1
1.375618375E0,4.623864117E-1,-1.479698498E1,-9.986997557E-1,1.483785587E1
1.385581375E0,4.165658757E-1,-1.594401924E1,-1.238396713E0,1.599746552E1
1.395545375E0,2.498594186E-1,-1.711204968E1,-1.348594801E0,1.716692698E1
1.405509375E0,-4.311476621E-1,-1.837547511E1,-1.571525453E0,1.844759242E1
1.415472375E0,-1.375301374E0,-1.953113869E1,-1.676013443E0,1.965110311E1
1.425436375E0,-2.206713459E0,-2.047507811E1,-1.199640491E0,2.062856139E1
1.435399375E0,-2.758501167E0,-2.096485960E1,-6.881447768E-1,2.115675329E1
1.445363375E0,-3.192983204E0,-2.095615660E1,-6.338872933E-1,2.120748581E1
1.455327375E0,-3.184717580E0,-2.036882952E1,-9.121796751E-1,2.063646563E1
1.465290375E0,-2.509519123E0,-1.925244285E1,-1.041945763E0,1.944324801E1
1.475254375E0,-1.330074623E0,-1.776859143E1,-8.673183748E-1,1.783939968E1
1.485217375E0,-2.811885077E-1,-1.609614859E1,-5.569120614E-1,1.610823446E1
1.495181375E0,7.648701864E-1,-1.430976457E1,-1.707139926E-1,1.433120831E1
1.505144375E0,1.652250943E0,-1.246646959E1,2.885109758E-1,1.257879310E1
1.515108375E0,2.402554253E0,-1.070820132E1,8.904186773E-1,1.101048082E1
1.525072375E0,3.076368674E0,-8.924616945E0,1.749743177E0,9.600751690E0
1.535035375E0,3.264819172E0,-6.677892743E0,2.842163129E0,7.958089404E0
1.544999375E0,3.304903882E0,-3.432252438E0,4.168779416E0,6.330992678E0
1.554962375E0,4.487407353E0,7.112336773E-1,5.378892270E0,7.040963013E0
1.564926375E0,5.957938528E0,4.737112405E0,6.245487052E0,9.845982631E0
1.574890375E0,6.849561147E0,8.653731816E0,6.688061635E0,1.290479487E1
1.584853375E0,7.662974918E0,1.262431050E1,6.917523335E0,1.630786710E1
1.594817375E0,8.283093188E0,1.681146538E1,6.989765099E0,2.000229529E1
1.604780375E0,8.195684915E0,2.051583320E1,6.687985037E0,2.308241337E1
1.614744375E0,7.762718477E0,2.339676571E1,6.059388889E0,2.538473237E1
1.624707375E0,7.778934560E0,2.571348868E1,5.536713883E0,2.742900880E1
1.634671375E0,8.071585364E0,2.729497107E1,4.874283407E0,2.887775224E1
1.644635375E0,8.121110111E0,2.780014711E1,3.713942637E0,2.919921195E1
1.654598375E0,8.106517215E0,2.711119074E1,2.828760141E0,2.843825185E1
1.664562375E0,7.846159413E0,2.502362716E1,2.380771621E0,2.633272123E1
1.674525375E0,7.221342906E0,2.179904911E1,2.137961898E0,2.306333056E1
1.684489375E0,6.261834698E0,1.784591969E1,2.072677735E0,1.902586177E1
1.694452375E0,5.425095799E0,1.378535352E1,2.227120242E0,1.498091121E1
1.704416375E0,4.914706963E0,1.009434308E1,2.510801418E0,1.150453087E1
1.714380375E0,4.654390384E0,6.525713693E0,2.905990165E0,8.526022982E0
1.724343375E0,4.342945751E0,2.985231632E0,3.122419006E0,6.125543742E0
1.734307375E0,3.850716028E0,-4.025147241E-1,3.196150056E0,5.020498701E0
1.744270375E0,3.102672958E0,-3.603453065E0,3.072114240E0,5.661213596E0
1.754234417E0,2.187506818E0,-6.485730432E0,2.810446662E0,7.399222645E0
1.764197417E0,1.473023843E0,-8.767235627E0,2.571131819E0,9.254455069E0
1.774161417E0,1.157394066E0,-1.047755088E1,2.239441495E0,1.077653617E1
1.784125417E0,1.005781611E0,-1.196152744E1,1.663104545E0,1.211840138E1
1.794088417E0,8.514639419E-1,-1.337344057E1,1.038134694E0,1.344067064E1
1.804052417E0,5.752476141E-1,-1.450859446E1,3.789942992E-1,1.452493923E1
1.814015417E0,2.797594482E-1,-1.556973897E1,-3.394168353E-1,1.557595071E1
1.823979417E0,-1.624461758E-1,-1.671984536E1,-1.065529630E0,1.675455075E1
1.833943417E0,-7.629990774E-1,-1.792034071E1,-1.493565989E0,1.799865323E1
1.843906417E0,-1.681661268E0,-1.902760221E1,-1.688348436E0,1.917623923E1
1.853870417E0,-2.560654194E0,-1.984503360E1,-1.887872099E0,2.009841709E1
1.863833417E0,-3.143240063E0,-2.021380346E1,-1.882690589E0,2.054318214E1
1.873797417E0,-3.291347697E0,-2.000604253E1,-1.628456576E0,2.034026987E1
1.883760417E0,-2.719591455E0,-1.917985435E1,-1.297119131E0,1.941508456E1
1.893724417E0,-1.777703832E0,-1.795558773E1,-1.161903731E0,1.808074616E1
1.903688417E0,-7.613454849E-1,-1.640965290E1,-1.290398341E0,1.647790895E1
1.913651417E0,5.555117995E-2,-1.477596307E1,-1.175659890E0,1.482276448E1
1.923615417E0,7.188259944E-1,-1.322343142E1,-7.775709236E-1,1.326576292E1
1.933578417E0,1.275427423E0,-1.188426935E1,-2.505156223E-1,1.195513827E1
1.943542417E0,1.712699751E0,-1.038844867E1,5.091369474E-1,1.054098794E1
1.953505417E0,2.125588605E0,-8.247401783E0,1.458209337E0,8.640841253E0
1.963469417E0,2.918595301E0,-5.452694072E0,2.535081396E0,6.684063798E0
1.973433417E0,3.921895938E0,-1.545260637E0,3.763676130E0,5.651049123E0
1.983396417E0,4.980213320E0,2.845393131E0,4.957882218E0,7.581515869E0
1.993360417E0,5.519488571E0,7.053526647E0,5.506624696E0,1.051379607E1
2.003323417E0,5.724415938E0,1.127769557E1,5.854852701E0,1.393680937E1
2.013287417E0,6.251194519E0,1.516210150E1,6.178061054E0,1.752527298E1
2.023250417E0,6.816836620E0,1.896219058E1,6.492233706E0,2.117033376E1
2.033214417E0,7.512775735E0,2.229992628E1,6.732966498E0,2.447572980E1
2.043178417E0,7.965899280E0,2.481809987E1,6.806117504E0,2.693913265E1
2.053141417E0,8.128237283E0,2.644437193E1,6.685980027E0,2.846182315E1
2.063105417E0,8.277704394E0,2.710296955E1,6.447005492E0,2.906295285E1
2.073068417E0,8.504350659E0,2.687368619E1,5.990373618E0,2.881672372E1
2.083032417E0,9.050480016E0,2.557786368E1,5.671275272E0,2.771825504E1
2.092996417E0,9.443857881E0,2.270388235E1,5.432128830E0,2.518254850E1
2.102959417E0,8.744319220E0,1.862162769E1,4.891795233E0,2.114610595E1
2.112923417E0,7.489082817E0,1.433823232E1,4.458848090E0,1.677952901E1
2.122886417E0,6.449971200E0,1.018365228E1,4.337580346E0,1.281106965E1
2.132850417E0,5.776835641E0,6.197353358E0,4.270897529E0,9.487865111E0
2.142813417E0,5.318464805E0,2.400973166E0,3.902717071E0,7.020109726E0
2.152777417E0,4.959513007E0,-9.621476412E-1,3.092537395E0,5.923367698E0
2.162741417E0,4.415594189E0,-3.841841124E0,2.075876308E0,6.210191439E0
2.172704417E0,3.806635038E0,-6.316199770E0,1.264743390E0,7.482274099E0
2.182668417E0,3.229190333E0,-8.444210292E0,8.737519200E-1,9.082719861E0
2.192631417E0,2.794601292E0,-1.031128180E1,7.897373714E-1,1.071242334E1
2.202595417E0,2.345063552E0,-1.203133852E1,7.221507213E-1,1.227900367E1
2.212558417E0,1.839848624E0,-1.346871978E1,6.686326182E-1,1.361023604E1
2.222522417E0,1.304626663E0,-1.495388916E1,3.412844360E-1,1.501457049E1
2.232486417E0,4.870587382E-1,-1.655685656E1,-3.819456813E-1,1.656842201E1
2.242449417E0,-7.494323677E-1,-1.803722655E1,-1.204080867E0,1.809289919E1
2.252413417E0,-1.741624172E0,-1.911470935E1,-1.944640085E0,1.929214849E1
2.262376417E0,-2.159365631E0,-1.981408546E1,-2.588274979E0,2.009875643E1
2.272340417E0,-2.282074129E0,-2.015010623E1,-3.108364346E0,2.051576400E1
2.282304417E0,-2.501088608E0,-2.008827310E1,-3.525036933E0,2.054799371E1
2.292267417E0,-2.645474489E0,-1.977472200E1,-3.558513705E0,2.026576387E1
2.302231417E0,-2.500606213E0,-1.911446611E1,-3.290427638E0,1.955614379E1
2.312194417E0,-1.983328187E0,-1.811879287E1,-2.874817197E0,1.845233914E1
2.322158417E0,-9.830841815E-1,-1.688060286E1,-2.594901043E0,1.710715402E1
2.332121417E0,1.628671753E-1,-1.550644169E1,-2.242160743E0,1.566855272E1
2.342085417E0,1.120379729E0,-1.411794198E1,-1.528886387E0,1.424461407E1
2.352049417E0,1.723960319E0,-1.266144851E1,-6.102575254E-1,1.279283908E1
2.362012417E0,2.071427600E0,-1.113692736E1,3.863430798E-1,1.133451474E1
2.371976417E0,2.341659595E0,-9.410204816E0,1.111473688E0,9.760670986E0
2.381939417E0,2.921694325E0,-7.550027761E0,2.003023217E0,8.339743338E0
2.391903417E0,3.512356369E0,-5.525286085E0,2.942880249E0,7.178159774E0
2.401866417E0,3.505278314E0,-2.256246977E0,4.034346081E0,5.801170122E0
2.411830417E0,3.970304452E0,2.399987910E0,5.607420169E0,7.277803265E0
2.421794417E0,5.423373209E0,6.715457010E0,6.716543423E0,1.093719778E1
2.431757417E0,6.425357931E0,1.073747248E1,6.986525742E0,1.433143684E1
2.441721417E0,6.449236205E0,1.560403990E1,7.234263498E0,1.836881263E1
2.451684417E0,7.081160004E0,2.026481691E1,7.536335337E0,2.275086771E1
2.461648417E0,8.690944081E0,2.408920702E1,7.443587971E0,2.666888460E1
2.471611417E0,9.744967268E0,2.711116267E1,6.978513302E0,2.964252311E1
2.481575417E0,1.012338854E1,2.879575018E1,6.178929951E0,3.114253360E1
2.491539417E0,9.919727679E0,2.890894058E1,5.497125310E0,3.105392454E1
2.501502417E0,9.103448188E0,2.750925515E1,5.054747778E0,2.941398244E1
2.511466417E0,8.221958209E0,2.442995702E1,4.443660532E0,2.615663426E1
2.521429417E0,7.401407912E0,2.043509251E1,3.952558737E0,2.209064430E1
2.531393417E0,6.435349068E0,1.613481389E1,3.900453613E0,1.780335573E1
2.541356417E0,5.635079838E0,1.185177520E1,3.968780082E0,1.371021209E1
2.551320417E0,5.014611905E0,8.069965686E0,3.862513955E0,1.025620265E1
2.561284417E0,4.757122162E0,4.561584839E0,3.712786642E0,7.564592002E0
2.571247417E0,4.701022806E0,1.178092332E0,3.325482280E0,5.877614257E0
2.581211417E0,4.422918704E0,-1.827257815E0,2.640746430E0,5.465768262E0
2.591174417E0,3.736854367E0,-4.654264376E0,1.846465334E0,6.247854965E0
2.601138417E0,2.916911303E0,-7.196535509E0,1.216213693E0,7.859877265E0
2.611102417E0,2.233434358E0,-9.272530954E0,9.368351908E-1,9.583617245E0
2.621065417E0,1.793607381E0,-1.092690941E1,7.581217687E-1,1.109905966E1
2.631029417E0,1.366524996E0,-1.244614935E1,4.004829629E-1,1.252734652E1
2.640992417E0,8.562896490E-1,-1.390009227E1,-1.376835099E-1,1.392712295E1
2.650956417E0,3.326238325E-1,-1.528065730E1,-8.134117243E-1,1.530590621E1
2.660919417E0,-8.840229928E-2,-1.640296252E1,-1.636769270E0,1.648465978E1
2.670883417E0,-2.853850543E-1,-1.720986308E1,-2.350562274E0,1.737198822E1
2.680847417E0,-5.454481566E-1,-1.781524987E1,-2.834386332E0,1.804755905E1
2.690810417E0,-1.034360754E0,-1.836675224E1,-2.946576859E0,1.863034635E1
2.700774417E0,-1.712042524E0,-1.891464102E1,-2.913348594E0,1.921411811E1
2.710737417E0,-2.300895731E0,-1.911633722E1,-2.739597119E0,1.944823545E1
2.720701417E0,-2.502821723E0,-1.884602745E1,-2.460860349E0,1.917009914E1
2.730664417E0,-2.383365446E0,-1.822175766E1,-2.459929472E0,1.854087744E1
2.740628417E0,-1.912830647E0,-1.715941681E1,-2.477816397E0,1.744259386E1
2.750593125E0,-9.711997157E-1,-1.574831527E1,-2.156964033E0,1.592498529E1
2.760556125E0,2.194807944E-1,-1.432341781E1,-1.760989712E0,1.443293298E1
2.770520125E0,1.407175716E0,-1.275268378E1,-1.283262838E0,1.289410139E1
2.780483125E0,2.052878771E0,-1.108324758E1,-8.868528990E-1,1.130659968E1
2.790447125E0,2.361122930E0,-9.417744800E0,-7.271117183E-1,9.736401289E0
2.800411125E0,2.347707371E0,-7.654851966E0,-2.147973939E-1,8.009658322E0
2.810374125E0,2.676560626E0,-5.777123909E0,6.553524220E-1,6.400673733E0
2.820338125E0,2.982274987E0,-3.756267123E0,1.633447759E0,5.066720673E0
2.830301125E0,3.396732650E0,-1.641417514E0,2.759249611E0,4.673917261E0
2.840265125E0,3.569217325E0,3.503827035E-2,3.766340706E0,5.189013616E0
2.850228125E0,2.847049647E0,1.962962919E0,4.451138536E0,5.636625709E0
2.860192125E0,2.909151755E0,4.545050082E0,4.936916442E0,7.313944773E0
2.870156125E0,4.315059502E0,7.215139010E0,5.501510137E0,1.004711816E1
2.880119125E0,6.051707987E0,9.611701621E0,6.379782978E0,1.302726404E1
2.890083125E0,7.101311263E0,1.116548165E1,7.258103766E0,1.509227194E1
2.900046125E0,6.713689397E0,1.172590921E1,7.717449918E0,1.556051430E1
2.910010125E0,5.334967402E0,1.166538000E1,7.253188012E0,1.473606813E1
2.919973125E0,4.139427271E0,1.114081693E1,6.439495913E0,1.351738760E1
2.929937125E0,3.621730877E0,1.018985150E1,5.613722298E0,1.218457575E1
2.939901125E0,3.075921070E0,9.137056814E0,5.198829603E0,1.095330667E1
2.949864125E0,2.247859439E0,8.206223937E0,4.836322990E0,9.786981323E0
2.959828125E0,1.680936944E0,7.419608540E0,4.242727106E0,8.710733218E0
2.969791125E0,1.718703379E0,6.609018974E0,3.247715774E0,7.561794156E0
2.979755125E0,1.615881115E0,5.787888048E0,2.189220637E0,6.395577131E0
2.989718125E0,1.486299946E0,5.006833938E0,1.479207273E0,5.428215892E0
2.999682125E0,1.194207770E0,4.174558804E0,9.903028616E-1,4.453512452E0
3.009646125E0,1.164370452E0,3.464977550E0,8.245816603E-1,3.747234031E0
3.019609125E0,9.868966392E-1,2.677318425E0,8.096847090E-1,2.966072867E0
3.029573125E0,6.898179576E-1,1.968641151E0,1.029556682E0,2.326238113E0
3.039536125E0,4.553502013E-1,1.361172162E0,1.314309360E0,1.946160979E0
3.049500125E0,1.278725124E-1,7.259914649E-1,1.166374219E0,1.379798466E0
3.059463125E0,-1.764859253E-1,2.057377911E-1,8.006373122E-1,8.452783129E-1
3.069427125E0,-1.984845941E-1,-1.083623546E-1,6.793148965E-1,7.159659647E-1
3.079391125E0,-2.845410453E-2,-2.624130982E-1,5.056894290E-1,5.704314760E-1
3.089354125E0,7.310969247E-2,-3.479970396E-1,1.922731152E-1,4.042473469E-1
3.099318125E0,-4.946934476E-2,-5.978947574E-1,4.823660553E-3,5.999571857E-1
3.109281125E0,-3.524847776E-1,-8.070058072E-1,-6.708656698E-2,8.831786335E-1
3.119245125E0,-4.236514585E-1,-8.436216563E-1,-2.362175721E-1,9.731273291E-1
3.129209125E0,-3.271590248E-1,-8.166455269E-1,-2.342818514E-1,9.104015213E-1
3.139172125E0,8.587421905E-2,-7.745619464E-1,-2.048902372E-1,8.057919084E-1
3.149136125E0,3.749976176E-1,-6.689150387E-1,-1.702077699E-1,7.855197179E-1
3.159099125E0,3.190429433E-1,-6.638262069E-1,-1.198936486E-1,7.462091661E-1
3.169063125E0,1.834067629E-1,-7.389582503E-1,-1.911717921E-1,7.850120957E-1
3.179026125E0,2.696080971E-1,-6.777139288E-1,-5.184658876E-1,8.948695838E-1
3.188990125E0,4.188142763E-1,-5.744088310E-1,-7.345383400E-1,1.022202268E0
3.198954125E0,3.139718724E-1,-5.828668284E-1,-7.563168794E-1,1.005150386E0
3.208917125E0,6.191718981E-2,-5.638604540E-1,-7.542300081E-1,9.437347377E-1
3.218881125E0,2.112031835E-1,-4.788559717E-1,-6.005277586E-1,7.965823342E-1
3.228844125E0,6.698890387E-1,-2.329448855E-1,-4.412253383E-1,8.352810562E-1
3.238808125E0,1.122217362E0,3.481373727E-2,-5.186360416E-1,1.236756705E0
3.248771125E0,8.741748199E-1,3.210647643E-2,-5.801019725E-1,1.049633622E0
3.258735125E0,5.268506852E-1,-5.379379928E-2,-4.788021773E-1,7.139446354E-1
3.268699125E0,1.771461491E-1,-7.977297843E-2,-3.168635398E-1,3.716813004E-1
3.278662125E0,-1.206621555E-1,-1.668333417E-1,-1.253166488E-1,2.410331557E-1
3.288626125E0,-3.765042624E-1,-1.856566983E-1,-6.339726627E-2,4.245504477E-1
3.298589125E0,-4.362276865E-1,-1.857017219E-1,1.029621586E-1,4.851607261E-1
3.308553125E0,3.572180986E-2,-1.030250162E-1,4.365209609E-1,4.499341629E-1
3.318516125E0,4.339911265E-1,2.182531714E-2,6.239636913E-1,7.603652612E-1
3.328480125E0,5.862357748E-1,8.818712175E-2,4.997264385E-1,7.753553156E-1
3.338444125E0,6.249040698E-1,3.707251668E-1,4.224642545E-2,7.278234718E-1
3.348407125E0,-1.659458075E-2,1.156579256E-1,1.205286562E-2,1.174623660E-1
3.358371125E0,-4.301710675E-1,-1.322961777E-1,1.121770781E-1,4.638244525E-1
3.368334125E0,-5.492151887E-1,-8.912326097E-2,3.657404155E-2,5.576001611E-1
3.378298125E0,-2.723808833E-1,-3.034120202E-2,1.288466129E-1,3.028421763E-1
3.388261125E0,-1.524000015E-2,3.026811182E-2,1.545696840E-1,1.582409663E-1
3.398225125E0,-4.900098279E-2,-1.562668383E-2,4.208358049E-2,6.645537833E-2
3.408189125E0,-1.653714647E-1,-8.679314554E-2,-1.610615551E-3,1.867708905E-1
3.418152125E0,3.595123999E-3,-5.529068649E-2,2.233139366E-2,5.973839696E-2
3.428116125E0,-2.207967103E-2,-4.677421689E-2,2.606308669E-2,5.791911365E-2
3.438079125E0,-1.882041109E-1,-1.851193392E-1,-4.663037539E-2,2.680752675E-1
3.448043125E0,-3.198052740E-1,-2.140817678E-1,-1.723610070E-1,4.216808430E-1
3.458006125E0,-1.814085500E-1,-1.803573668E-2,-2.186402571E-1,2.846715859E-1
3.467970125E0,4.417507837E-1,2.716651475E-1,-1.907964009E-1,5.525839066E-1
3.477934125E0,8.781470527E-1,5.211097062E-1,-1.314766905E-1,1.029555094E0
3.487897125E0,5.626671103E-1,4.296311867E-1,-8.608855605E-2,7.131538916E-1
3.497861125E0,1.619461658E-1,1.431819391E-1,-1.660427982E-1,2.725762996E-1
3.507824125E0,-2.196552607E-1,-7.240957975E-2,-4.649001297E-1,5.192530322E-1
3.517788125E0,-5.013545226E-1,-6.609049380E-2,-6.303853959E-1,8.081522493E-1
3.527752125E0,-2.823847018E-1,-1.495255834E-1,4.982698971E-1,5.919222164E-1
3.537715125E0,2.050036000E-1,-2.100618070E-1,6.375999829E-1,7.019160755E-1
3.547679125E0,5.139416045E-1,5.142743111E-2,7.790195712E-1,9.346936642E-1
3.557642125E0,8.251414581E-1,3.145246536E-1,3.994592616E-1,9.692016742E-1
3.567606125E0,6.128650182E-1,3.498482680E-1,-3.307837138E-1,7.793684664E-1
3.577569125E0,1.168465184E-1,1.230014437E-1,-5.832773030E-1,6.074494845E-1