"Time (s)","Linear Acceleration x (m/s^2)","Linear Acceleration y (m/s^2)","Linear Acceleration z (m/s^2)","Absolute acceleration (m/s^2)"
4.884131100E-2,0.000000000E0,0.000000000E0,0.000000000E0,0.000000000E0
5.375401900E-2,-1.563290358E-1,-8.173561096E-2,1.071734428E-1,2.064112990E-1
5.866672800E-2,-2.495884299E-1,-1.036739349E-2,4.006385803E-3,2.498357827E-1
6.357943600E-2,-2.309073210E-1,1.225814819E-1,-2.575898170E-1,3.670107961E-1
6.849214400E-2,-1.039589643E-1,2.580976486E-1,-4.280517101E-1,5.105390573E-1
7.340485300E-2,4.248452187E-2,3.038711548E-1,-3.676309586E-1,4.788477159E-1
7.831756100E-2,1.057640314E-1,3.230619431E-1,-1.900007725E-1,3.894295096E-1
8.323026900E-2,1.693229675E-1,2.796792984E-1,-7.152271271E-2,3.346733866E-1
8.814297800E-2,2.771522999E-1,1.756629944E-1,-7.817697525E-2,3.373166530E-1
9.305568600E-2,3.474225998E-1,9.554100037E-2,-1.463749409E-1,3.889166606E-1
9.796839400E-2,3.300205469E-1,1.126670837E-2,-1.503934860E-1,3.628480408E-1
1.028811030E-1,2.552313805E-1,-8.102416992E-3,-1.680057049E-1,3.056707765E-1
1.077938630E-1,3.936547041E-1,-7.851314545E-2,-1.139318943E-1,4.172634858E-1
1.127065710E-1,8.033044338E-1,-1.641778946E-1,-9.593725204E-3,8.199661176E-1
1.176192800E-1,9.985940456E-1,-1.824436188E-1,1.209104061E-1,1.022298913E0
1.225319880E-1,6.430770159E-1,-1.176643372E-2,1.918373108E-1,6.711840665E-1
1.274446960E-1,-3.986465931E-2,2.821836472E-1,2.434182167E-1,3.747922491E-1
1.323574050E-1,-7.202274203E-1,4.689512253E-1,2.998223305E-1,9.102396490E-1
1.372701130E-1,-1.263154149E0,5.487070084E-1,2.888100147E-1,1.407142143E0
1.421828210E-1,-1.645159483E0,4.499225616E-1,2.774980068E-1,1.728000341E0
1.470955300E-1,-1.686182976E0,2.054300308E-1,2.774865627E-1,1.721166267E0
1.520082380E-1,-1.427940011E0,-1.202993393E-1,2.955582142E-1,1.463160710E0
1.569209460E-1,-9.357562065E-1,-4.202051163E-1,3.544664383E-1,1.085291884E0
1.618336550E-1,-4.891417623E-1,-6.533346176E-1,4.396348000E-1,9.270299582E-1
1.667463630E-1,-1.433944702E-1,-7.683248520E-1,4.704418182E-1,9.122502708E-1
1.716591240E-1,5.017698407E-1,-7.726597786E-1,3.596694469E-1,9.890087045E-1
1.765718320E-1,2.090491772E0,-6.960430145E-1,1.327767372E-1,2.207319956E0
1.814845400E-1,3.569395542E0,-4.626746178E-1,4.408240318E-2,3.599527135E0
1.863972490E-1,2.663473129E0,1.291255951E-1,2.537701130E-1,2.678649249E0
1.913099570E-1,8.914840221E-1,6.486015320E-1,6.691884995E-1,1.289666995E0
1.962226650E-1,-2.628067732E-1,9.142341614E-1,1.204688549E0,1.534980782E0
2.011353740E-1,-5.815426111E-1,1.006196022E0,1.724054337E0,2.079179068E0
2.060480820E-1,-3.781626225E-1,9.806213379E-1,1.941213846E0,2.207472848E0
2.109607900E-1,-1.523410082E-1,9.636049271E-1,1.935380220E0,2.167357570E0
2.158734990E-1,-1.888574958E-1,9.891958237E-1,1.869125843E0,2.123159662E0
2.207862070E-1,-3.428806663E-1,7.951068878E-1,1.583500862E0,1.804781730E0
2.256989670E-1,-3.731859326E-1,4.703540802E-1,1.386950493E0,1.511334632E0
2.306116760E-1,-2.550187409E-1,1.175069809E-1,1.300797462E0,1.330757862E0
2.355243840E-1,-5.294074416E-1,8.845138550E-2,1.106286049E0,1.229619742E0
2.404370920E-1,-9.924243689E-1,3.910036087E-1,7.904314995E-1,1.327618886E0
2.453498010E-1,-1.125253201E0,4.874935150E-1,3.761382103E-1,1.282702088E0
2.502625090E-1,-1.034073114E0,4.934034348E-1,-6.382417679E-2,1.147531124E0
2.551752170E-1,-7.204730511E-1,4.676513672E-1,-3.837642670E-1,9.407732092E-1
2.600879260E-1,-4.250715971E-1,4.701957703E-1,-6.540365219E-1,9.107874050E-1
2.650006340E-1,-3.272714615E-1,7.231636047E-1,-8.063917160E-1,1.131521015E0
2.699133420E-1,-4.036667943E-1,1.174469948E0,-8.898591995E-1,1.527801013E0
2.748261030E-1,-5.156215429E-1,1.635162354E0,-7.178936005E-1,1.858761071E0
2.797388110E-1,-5.715101361E-1,1.908926010E0,-4.484875202E-1,2.042489511E0
2.846515190E-1,-5.720182061E-1,1.939223289E0,-8.414411545E-2,2.023579014E0
2.895642280E-1,-6.437225342E-1,1.867052078E0,2.959537506E-1,1.996960387E0
2.944769360E-1,-5.272521377E-1,1.621360779E0,5.536439419E-1,1.792575579E0
2.993896440E-1,-2.326810956E-1,1.331695557E0,6.075775623E-1,1.482128214E0
3.043023530E-1,-2.130097151E-2,1.005310059E0,5.704126358E-1,1.156059090E0
3.092151130E-1,1.014701724E-1,8.067293167E-1,5.268535614E-1,9.688565743E-1
3.141278210E-1,2.501648962E-1,6.037950516E-1,5.131285191E-1,8.309343035E-1
3.190405300E-1,2.052339315E-1,5.161247253E-1,4.022810459E-1,6.858102789E-1
3.239532380E-1,1.439233124E-1,4.098424911E-1,3.208413124E-1,5.400221617E-1
3.288659460E-1,9.515184164E-2,2.992820740E-1,2.872357368E-1,4.255913548E-1
3.337786550E-1,9.262633324E-2,1.326742172E-1,3.007156849E-1,3.414850050E-1
3.386913630E-1,2.335727960E-1,-4.662609100E-2,3.932251930E-1,4.597350278E-1
3.436040710E-1,4.417161942E-1,-2.947387695E-1,4.640071392E-1,7.051856236E-1
3.485168320E-1,5.709018111E-1,-4.690208435E-1,4.867918491E-1,8.848026526E-1
3.534295400E-1,6.815198660E-1,-5.681352615E-1,4.406402111E-1,9.906617984E-1
3.583422490E-1,9.015284181E-1,-7.393302917E-1,3.901052475E-1,1.229449012E0
3.632549570E-1,9.279334545E-1,-6.821250916E-1,2.596778870E-1,1.180587880E0
3.681676650E-1,8.673344254E-1,-6.992149353E-1,3.567152023E-1,1.169793258E0
3.730803740E-1,8.511573076E-1,-7.492513657E-1,5.148220062E-1,1.245346566E0
3.779930820E-1,7.873817086E-1,-8.008699417E-1,3.905668259E-1,1.189077400E0
3.829057900E-1,5.752794147E-1,-7.287349701E-1,1.407115459E-1,9.390424914E-1
3.878185510E-1,2.848987877E-1,-5.082197189E-1,-9.003353119E-2,5.895427370E-1
3.927312590E-1,-1.324205846E-2,-2.707176208E-1,-2.417361736E-1,3.631800655E-1
3.976439670E-1,-2.379859686E-1,-5.377197266E-2,-3.921816349E-1,4.618822156E-1
4.025566760E-1,-4.766751528E-1,1.575164795E-1,-5.474021435E-1,7.427514721E-1
4.074693840E-1,-5.104112625E-1,2.525434494E-1,-6.399040222E-1,8.566066824E-1
4.123820920E-1,-4.721906781E-1,3.157520294E-1,-7.541482449E-1,9.441413855E-1
4.172948530E-1,-3.793090880E-1,2.390193939E-1,-7.984857559E-1,9.157429537E-1
4.222075610E-1,-2.574073970E-1,4.306030273E-2,-9.064899683E-1,9.433116242E-1
4.271202690E-1,-2.612519264E-1,-2.958297729E-2,-1.174410105E0,1.203481124E0
4.320329780E-1,-1.442630887E-1,-1.720514297E-1,-1.306824446E0,1.325972724E0
4.369456860E-1,9.576165676E-2,-4.618530273E-1,-1.176603317E0,1.267625292E0
4.418583940E-1,3.023027480E-1,-6.045246124E-1,-1.111475587E0,1.300851621E0
4.467711030E-1,5.234781504E-1,-6.803903580E-1,-1.004856825E0,1.321626896E0
4.516838630E-1,6.685860157E-1,-5.746259689E-1,-8.302980661E-1,1.211031438E0
4.565965710E-1,6.090354919E-1,-3.368148804E-1,-6.876409054E-1,9.783754437E-1
4.615092800E-1,5.227442980E-1,-1.176338196E-1,-6.212756634E-1,8.204162154E-1
4.664219880E-1,4.534579813E-1,-4.486751556E-2,-3.528351784E-1,5.763071212E-1
4.713346960E-1,3.220039010E-1,-8.638381958E-2,-2.809929848E-2,3.345717369E-1
4.762474050E-1,1.691132784E-2,-1.063089371E-1,2.229421139E-1,2.475697260E-1
4.811601650E-1,-2.026927471E-1,-1.927366257E-1,4.466612339E-1,5.270085526E-1
4.860728740E-1,-4.167878628E-1,-1.653232574E-1,5.421533585E-1,7.035440044E-1
4.909855820E-1,-5.981571674E-1,-6.830406189E-2,7.316584587E-1,9.475133466E-1
4.958982900E-1,-6.720241308E-1,-1.409626007E-2,1.010201454E0,1.213392811E0
5.008109990E-1,-8.644905090E-1,1.871623993E-1,1.038223028E0,1.363921061E0
5.057237590E-1,-7.426816225E-1,5.520420074E-1,3.171434402E-1,9.782158924E-1
5.106364670E-1,-5.847513676E-1,6.152811050E-1,3.576216698E-1,9.210853700E-1
5.155491760E-1,-7.371405363E-1,3.968315125E-1,1.105334997E0,1.386584608E0
5.204618840E-1,-7.949563265E-1,5.685911179E-1,1.160760641E0,1.517437539E0
5.253745920E-1,-8.104571104E-1,6.812191010E-1,9.208493233E-1,1.403162025E0
5.302873010E-1,-6.201448441E-1,8.333015442E-1,5.638492107E-1,1.181903982E0
5.352000610E-1,-4.193899632E-1,1.034648895E0,1.531043053E-1,1.126866099E0
5.401127690E-1,-2.017903328E-1,9.274120331E-1,-1.055417061E-1,9.549615014E-1
5.450254780E-1,-2.006820440E-1,7.734107971E-1,-3.375205994E-1,8.673855538E-1
5.499381860E-1,-2.160394192E-2,6.232805252E-1,-5.155029297E-1,8.091283050E-1
5.548508940E-1,2.516454458E-1,5.697612762E-1,-5.340404510E-1,8.204587410E-1
5.597636030E-1,3.437497616E-1,6.927804947E-1,-5.066540241E-1,9.245577389E-1
5.646763630E-1,3.040169477E-1,7.868118286E-1,-3.818085194E-1,9.258924903E-1
5.695890710E-1,1.685725451E-1,8.378782272E-1,-1.464142799E-1,8.671180819E-1
5.745017800E-1,-3.389239311E-3,6.826295853E-1,2.363169193E-1,7.223851632E-1
5.794144880E-1,-1.456698179E-1,4.366636276E-1,6.395580769E-1,7.879907063E-1
5.843271960E-1,-2.401620150E-1,2.879962921E-1,8.832814693E-1,9.595862712E-1
5.892399570E-1,-2.714068890E-1,2.426939011E-1,8.838388920E-1,9.558939355E-1
5.941526650E-1,-3.758549690E-1,2.356576920E-1,7.527763844E-1,8.737698727E-1
5.990653740E-1,-4.232465029E-1,2.688331604E-1,6.384561062E-1,8.118097498E-1
6.039780820E-1,-4.361261129E-1,2.728748322E-1,4.867620468E-1,7.082400374E-1
6.088907900E-1,-3.959262967E-1,1.956062317E-1,4.462141991E-1,6.277949839E-1
6.138034990E-1,-3.876695037E-1,3.515338898E-2,3.843629360E-1,5.470450360E-1
6.187162590E-1,-3.331251144E-1,-1.059179306E-1,4.028394222E-1,5.333578067E-1
6.236289670E-1,-1.924346685E-1,-2.089490891E-1,4.978370667E-1,5.731776063E-1
6.285416760E-1,-4.497182369E-2,-2.244234085E-1,5.959970951E-1,6.384362682E-1
6.334543840E-1,4.629945755E-2,-2.219018936E-1,7.001121044E-1,7.358947268E-1
6.383671440E-1,4.160809517E-2,-1.705322266E-1,6.815602779E-1,7.038017380E-1
6.432798530E-1,1.286510527E-1,-1.273860931E-1,6.137495041E-1,6.398959008E-1
6.481925610E-1,2.776688337E-1,-1.774492264E-1,5.310304165E-1,6.249652090E-1
6.531052690E-1,3.838475347E-1,-3.550624847E-1,3.483800888E-1,6.283128076E-1
6.580179780E-1,4.433175623E-1,-5.114889145E-1,6.699132919E-2,6.801758662E-1
6.629307380E-1,5.184593797E-1,-5.468492508E-1,-3.019704819E-1,8.118068757E-1
6.678434460E-1,6.492884755E-1,-4.808578491E-1,-7.687226534E-1,1.115228368E0
6.727561550E-1,8.990263939E-1,-3.569307327E-1,-1.274059057E0,1.599648238E0
6.776688630E-1,1.228492737E0,-2.277002335E-1,-1.699584246E0,2.109414234E0
6.825816240E-1,1.575850844E0,-2.143106461E-1,-2.027378798E0,2.576722671E0
6.874943320E-1,1.788199186E0,-2.874107361E-1,-2.270222425E0,2.904164445E0
6.924070400E-1,1.735155821E0,-3.681316376E-1,-2.449720860E0,3.024470022E0
6.973197490E-1,1.612240791E0,-4.115438461E-1,-2.584659576E0,3.073947598E0
7.022324570E-1,1.439253449E0,-4.728250504E-1,-2.525023460E0,2.944615000E0
7.071452170E-1,1.259228826E0,-5.187482834E-1,-2.381175041E0,2.743128067E0
7.120579260E-1,9.906538725E-1,-5.662136078E-1,-2.120025635E0,2.407592498E0
7.169706340E-1,6.473594904E-1,-6.462068558E-1,-1.856151700E0,2.069288946E0
7.218833420E-1,3.476288915E-1,-7.324295044E-1,-1.498916268E0,1.704126992E0
7.267960510E-1,1.138483733E-1,-7.560310364E-1,-1.129159451E0,1.363651511E0
7.317088110E-1,-4.159478843E-2,-7.056875229E-1,-7.081676722E-1,1.000613041E0
7.366215190E-1,-2.427197993E-1,-5.320119858E-1,-4.689482450E-1,7.495746197E-1
7.415342280E-1,-4.288519323E-1,-3.357295990E-1,-4.550303221E-1,7.097048242E-1
7.464469360E-1,-5.674015880E-1,-1.479854584E-1,-4.811024666E-1,7.584878649E-1
7.513596960E-1,-5.472750664E-1,2.168941498E-2,-4.083397388E-1,6.831703823E-1
7.562724050E-1,-3.433224261E-1,2.019281387E-1,-2.632423639E-1,4.774325121E-1
7.611851130E-1,-1.152989194E-1,3.165988922E-1,-9.858870506E-2,3.510675606E-1
7.660978210E-1,1.426440477E-2,5.063800812E-1,9.060370922E-2,5.146195604E-1
7.710105820E-1,1.276751459E-1,8.658761978E-1,2.924089432E-1,9.227922425E-1
7.759232900E-1,6.777383685E-1,1.087479591E0,2.173985243E-1,1.299693532E0
7.808359990E-1,8.327950239E-1,1.574125290E0,-4.947712421E-1,1.848300993E0
7.857487070E-1,6.402972937E-1,2.364350319E0,-5.830936432E-1,2.517961726E0
7.906614670E-1,5.635993481E-1,3.025617599E0,-2.887152433E-1,3.091174951E0
7.955741760E-1,4.765982926E-1,3.458830833E0,1.766455173E-2,3.491556774E0
8.004868840E-1,4.324325323E-1,3.824777603E0,1.745790243E-1,3.853102574E0
8.053995920E-1,3.598313928E-1,4.247578621E0,1.973481178E-1,4.267358557E0
8.103123530E-1,2.612053752E-1,4.767403603E0,1.554557085E-1,4.777084031E0
8.152250610E-1,2.390288115E-1,5.307652473E0,1.295790672E-1,5.314611960E0
8.201377690E-1,3.979246616E-1,5.765980721E0,1.430124044E-1,5.781464369E0
8.250504780E-1,6.231077313E-1,6.107296944E0,1.997416019E-1,6.142250069E0
8.299631860E-1,7.222843766E-1,6.346641541E0,2.657761574E-1,6.393136205E0
8.348759460E-1,7.848500609E-1,6.610747337E0,4.241330624E-1,6.670671543E0
8.397886550E-1,8.753113747E-1,6.847114563E0,6.338976622E-1,6.931880992E0
8.447013630E-1,9.314221740E-1,7.032135010E0,8.924260139E-1,7.149468110E0
8.496140710E-1,8.792316318E-1,7.089988708E0,1.271045685E0,7.256482983E0
8.545268320E-1,8.142165542E-1,7.071388245E0,1.624327779E0,7.301090401E0
8.594395400E-1,7.885075808E-1,6.964842796E0,1.903057337E0,7.263085199E0
8.643522490E-1,7.753021717E-1,6.777970314E0,2.272506475E0,7.190706552E0
8.692650090E-1,7.698411345E-1,6.539695740E0,2.702146530E0,7.117715336E0
8.741777170E-1,7.318537235E-1,6.309684753E0,3.090424538E0,7.063883874E0
8.790904260E-1,6.756076813E-1,6.152068138E0,3.419517040E0,7.070889965E0
8.840031340E-1,6.248015761E-1,5.904569626E0,3.652264833E0,6.970893622E0
8.889158940E-1,5.339325666E-1,5.598659515E0,3.792126656E0,6.783089040E0
8.938286030E-1,4.029032588E-1,5.249013901E0,3.837458611E0,6.514642473E0
8.987413110E-1,2.148230672E-1,4.882178307E0,3.769551277E0,6.171817463E0
9.036540190E-1,5.262741446E-2,4.491251945E0,3.624398232E0,5.771514205E0
9.085667800E-1,-7.252113521E-2,4.033677101E0,3.466072321E0,5.318784410E0
9.134794880E-1,-9.899245948E-2,3.509941101E0,3.315564632E0,4.829332756E0
9.183921960E-1,-7.010991871E-2,2.963358879E0,3.193836927E0,4.357408125E0
9.233049050E-1,1.398847997E-2,2.420327187E0,3.057423115E0,3.899489129E0
9.282176650E-1,1.171518341E-1,1.835674286E0,3.024992704E0,3.540339743E0
9.331303740E-1,1.058383211E-1,1.228736877E0,2.952668428E0,3.199882328E0
9.380430820E-1,8.977904916E-2,6.258945465E-1,2.799534798E0,2.870052150E0
9.429558420E-1,9.267044812E-2,6.049346924E-2,2.560846567E0,2.563236706E0
9.478685510E-1,1.619880795E-1,-6.176471710E-1,2.372277260E0,2.456710720E0
9.527812590E-1,2.527336478E-1,-1.345997810E0,2.221350908E0,2.609594654E0
9.576940190E-1,2.842064500E-1,-1.943324089E0,2.081577778E0,2.861860910E0
9.626067280E-1,2.306975126E-1,-2.469850540E0,1.950271130E0,3.155462012E0
9.675194360E-1,1.663825810E-1,-2.978338242E0,1.800838232E0,3.484422503E0
9.724321440E-1,1.057450026E-1,-3.528416634E0,1.609163404E0,3.879473264E0
9.773449050E-1,2.248895168E-2,-4.143698215E0,1.377345681E0,4.366671705E0
9.822576130E-1,-5.963739753E-2,-4.773865223E0,1.174274564E0,4.916529928E0
9.871703210E-1,-1.290257275E-1,-5.414134026E0,1.001705647E0,5.507532032E0
9.920830820E-1,-2.884334326E-1,-6.102644920E0,9.137200117E-1,6.177406667E0
9.969957900E-1,-5.336763859E-1,-6.789258957E0,9.121442437E-1,6.871015557E0
1.001908499E0,-9.220381379E-1,-7.493165970E0,7.748701572E-1,7.589342155E0
1.006821207E0,-1.066992760E0,-7.788076878E0,4.920620024E-1,7.876213558E0
1.011733967E0,-1.104602933E0,-8.116945267E0,4.689108729E-1,8.205170657E0
1.016646676E0,-1.306013584E0,-8.849018097E0,4.614560008E-1,8.956770311E0
1.021559384E0,-1.379703760E0,-9.706068993E0,3.651504517E-1,9.810437942E0
1.026472144E0,-1.201983690E0,-1.021595097E1,2.349485159E-1,1.028910199E1
1.031384853E0,-1.138672829E0,-1.040913200E1,1.065199375E-1,1.047176926E1
1.036297561E0,-1.344447613E0,-1.053268719E1,6.807196140E-2,1.061836487E1
1.041210321E0,-1.515883207E0,-1.070141888E1,9.323966503E-2,1.080865216E1
1.046123030E0,-1.519630909E0,-1.083892250E1,3.191387653E-2,1.094497773E1
1.051035738E0,-1.355968237E0,-1.091915989E1,-6.057333946E-2,1.100319825E1
1.055948446E0,-1.175071239E0,-1.097099304E1,-1.435235739E-1,1.103467624E1
1.060861207E0,-1.012018919E0,-1.099932671E1,-2.123115063E-1,1.104782542E1
1.065773915E0,-8.780127168E-1,-1.091856861E1,-3.437856436E-1,1.095920779E1
1.070686624E0,-7.154986262E-1,-1.075560665E1,-5.504257679E-1,1.079342306E1
1.075599384E0,-5.579447746E-1,-1.062067127E1,-7.877906561E-1,1.066445380E1
1.080512092E0,-3.122960925E-1,-1.056150055E1,-9.828971624E-1,1.061173452E1
1.085424801E0,5.506938696E-2,-1.057551956E1,-1.127388835E0,1.063558424E1
1.090337561E0,5.059999228E-1,-1.059584045E1,-1.282006264E0,1.068510229E1
1.095250269E0,8.548754454E-1,-1.068215752E1,-1.423783660E0,1.081047923E1
1.100162978E0,1.109662771E0,-1.069610405E1,-1.503562570E0,1.085811649E1
1.105075738E0,1.261291385E0,-1.064766884E1,-1.579457879E0,1.083782242E1
1.109988446E0,1.276867628E0,-1.052997875E1,-1.580090165E0,1.072415630E1
1.114901155E0,1.159194231E0,-1.037906075E1,-1.520155668E0,1.055364896E1
1.119813863E0,9.514105320E-1,-1.024498081E1,-1.397259474E0,1.038350364E1
1.124726624E0,6.418315172E-1,-1.006307602E1,-1.182439208E0,1.015261588E1
1.129639332E0,3.496670127E-1,-9.883318901E0,-9.109288454E-1,9.931367020E0
1.134552092E0,3.641623259E-2,-9.710102081E0,-5.602868795E-1,9.726321502E0
1.139464801E0,-3.007463217E-1,-9.495358467E0,-1.341117620E-1,9.501066610E0
1.144377509E0,-5.885007977E-1,-9.174531937E0,3.358175159E-1,9.199518621E0
1.149290217E0,-8.254137635E-1,-8.845465660E0,8.513830900E-1,8.924596562E0
1.154202978E0,-9.695109129E-1,-8.462648392E0,1.259289861E0,8.610585356E0
1.159115686E0,-1.062144041E0,-8.123878479E0,1.566091061E0,8.341354369E0
1.164028446E0,-9.916590452E-1,-7.774051666E0,1.763459444E0,8.032997957E0
1.168941155E0,-8.944951296E-1,-7.410773277E0,1.909503937E0,7.704926177E0
1.173853863E0,-7.896295190E-1,-6.960185051E0,1.923444748E0,7.264112500E0
1.178766624E0,-7.150494456E-1,-6.415520668E0,1.838738799E0,6.712016204E0
1.183679332E0,-6.225208044E-1,-5.829613686E0,1.595384836E0,6.075951008E0
1.188592040E0,-4.710822701E-1,-5.195451260E0,1.357543707E0,5.390506211E0
1.193504801E0,-3.489689827E-1,-4.477418423E0,1.143433094E0,4.634273872E0
1.198417509E0,-2.487623692E-1,-3.640017033E0,9.547551274E-1,3.771361036E0
1.203330217E0,-8.908066154E-2,-2.826660633E0,8.172031045E-1,2.943767418E0
1.208242978E0,9.688140452E-2,-2.049020767E0,8.162266016E-1,2.207735939E0
1.213155686E0,3.311457932E-1,-1.266262054E0,8.370582461E-1,1.553622745E0
1.218068394E0,4.803791046E-1,-3.829231262E-1,9.014450312E-1,1.090869996E0
1.222981155E0,6.955494881E-1,5.720548630E-1,1.074167252E0,1.401738614E0
1.227893863E0,8.288670182E-1,1.560273170E0,1.291283369E0,2.188352266E0
1.232806571E0,9.906425476E-1,2.603052139E0,1.524881244E0,3.175297766E0
1.237719332E0,1.214597344E0,3.664359093E0,1.689798355E0,4.214047075E0
1.242632040E0,1.381755590E0,4.798910141E0,1.707947493E0,5.277866206E0
1.247544749E0,1.461545348E0,5.906229019E0,1.601258039E0,6.291556512E0
1.252457509E0,1.501938701E0,6.976890564E0,1.362591147E0,7.265636685E0
1.257370217E0,1.507791996E0,8.099265099E0,1.094665766E0,8.310825770E0
1.262282926E0,1.534303069E0,9.282654762E0,8.713773489E-1,9.448865743E0
1.267195686E0,1.615238547E0,1.047430134E1,7.403091192E-1,1.062393720E1
1.272108394E0,1.712799072E0,1.165259266E1,7.181626558E-1,1.179967601E1
1.277021103E0,1.832456708E0,1.276257801E1,8.383873701E-1,1.292068839E1
1.281933863E0,1.998652101E0,1.385441303E1,1.041342854E0,1.403651544E1
1.286846571E0,2.116283417E0,1.494464397E1,1.310631394E0,1.515053774E1
1.291759332E0,2.202526569E0,1.585180569E1,1.630034447E0,1.608688531E1
1.296672040E0,2.293540955E0,1.660495377E1,2.016873121E0,1.688350073E1
1.301584749E0,2.267658710E0,1.719723129E1,2.414629936E0,1.751335142E1
1.306497509E0,2.076896667E0,1.774110413E1,2.845587730E0,1.808749969E1
1.311410217E0,1.830494881E0,1.824126053E1,3.258298397E0,1.862017201E1
1.316322926E0,1.560996532E0,1.864275742E1,3.677654982E0,1.906604994E1
1.321235686E0,1.417795658E0,1.887891006E1,4.171637058E0,1.938623082E1
1.326148394E0,1.469064951E0,1.896429443E1,4.743714333E0,1.960370988E1
1.331061155E0,1.594991207E0,1.893490219E1,5.308959961E0,1.972966228E1
1.335973863E0,1.824545145E0,1.881942368E1,5.808995247E0,1.977989126E1
1.340886571E0,2.079523087E0,1.860604858E1,6.199405670E0,1.972161481E1
1.345799332E0,2.377623081E0,1.824026680E1,6.373230457E0,1.946736990E1
1.350712040E0,2.636214018E0,1.770848846E1,6.321171284E0,1.898676893E1
1.355624749E0,2.822707653E0,1.708315849E1,6.188742161E0,1.838756406E1
1.360537509E0,3.004563808E0,1.637928772E1,5.968195915E0,1.768976632E1
1.365450217E0,3.007723808E0,1.559523201E1,5.644346237E0,1.685575001E1
1.370362978E0,2.913771152E0,1.471989155E1,5.218461037E0,1.588702631E1
1.375275686E0,2.851671934E0,1.373980045E1,4.765777111E0,1.481981042E1
1.380188394E0,2.797318220E0,1.271541882E1,4.316087246E0,1.371624854E1
1.385101155E0,2.690732479E0,1.169263363E1,3.930192947E0,1.262553520E1
1.390013863E0,2.548758507E0,1.067175961E1,3.566285610E0,1.153694136E1
1.394926624E0,2.397270679E0,9.669777870E0,3.254409790E0,1.048058652E1
1.399839332E0,2.259679556E0,8.679704666E0,3.003144741E0,9.458451412E0
1.404752040E0,2.094860077E0,7.649183273E0,2.761694670E0,8.397940280E0
1.409664801E0,1.861697674E0,6.671525955E0,2.570163965E0,7.387890065E0
1.414577509E0,1.607458353E0,5.746644020E0,2.435262680E0,6.445024761E0
1.419490217E0,1.470310211E0,4.867277145E0,2.353876829E0,5.602939858E0
1.424402978E0,1.416429281E0,4.011819839E0,2.313788176E0,4.842993501E0
1.429315686E0,1.343038321E0,3.118175507E0,2.324329376E0,4.114520321E0
1.434228446E0,1.336115837E0,2.227061272E0,2.356442213E0,3.506825821E0
1.439141155E0,1.383726358E0,1.312245369E0,2.409927607E0,3.073180374E0
1.444053863E0,1.378269196E0,3.690500259E-1,2.424844503E0,2.813484452E0
1.448966624E0,1.341184378E0,-6.000308990E-1,2.427366734E0,2.837414646E0
1.453879332E0,1.204848289E0,-1.559147835E0,2.460279226E0,3.152074752E0
1.458792092E0,9.611477852E-1,-2.491705894E0,2.489993095E0,3.651365353E0
1.463704801E0,7.240622044E-1,-3.369253159E0,2.550067902E0,4.287071171E0
1.468617509E0,5.598390698E-1,-4.235009193E0,2.604627609E0,5.003279688E0
1.473530269E0,5.157755017E-1,-5.081941128E0,2.591528654E0,5.727841719E0
1.478442978E0,6.012058258E-1,-5.953135014E0,2.555946350E0,6.506468065E0
1.483355738E0,7.565832138E-1,-6.798465729E0,2.476048946E0,7.274776478E0
1.488268446E0,9.609111547E-1,-7.620475292E0,2.351250648E0,8.032644243E0
1.493181155E0,1.128750205E0,-8.371607780E0,2.204806328E0,8.730353074E0
1.498093915E0,1.226803780E0,-9.102369308E0,2.009682178E0,9.401967720E0
1.503006624E0,1.223916531E0,-9.782028198E0,1.793799043E0,1.002016778E1
1.507919384E0,1.093391299E0,-1.053035259E1,1.546910048E0,1.069938133E1
1.512832092E0,9.231695533E-1,-1.126628780E1,1.304377794E0,1.137905463E1
1.517744853E0,7.269004583E-1,-1.198779964E1,1.142262220E0,1.206401623E1
1.522657561E0,5.013982058E-1,-1.267373562E1,1.053423047E0,1.272732002E1
1.527570269E0,2.149091959E-1,-1.331013489E1,9.737222195E-1,1.334743465E1
1.532483030E0,-3.521180153E-2,-1.389498806E1,9.442430735E-1,1.392707895E1
1.537395738E0,-3.095022440E-1,-1.437614441E1,9.035702348E-1,1.440783672E1
1.542308499E0,-5.035153627E-1,-1.480422020E1,8.356767297E-1,1.483633442E1
1.547221207E0,-6.012448072E-1,-1.516758156E1,7.507952452E-1,1.519804985E1
1.552133915E0,-6.889613867E-1,-1.548323250E1,6.302266717E-1,1.551136171E1
1.557046676E0,-7.473491430E-1,-1.570365524E1,4.813331366E-1,1.572879526E1
1.561959384E0,-7.308320999E-1,-1.582207108E1,3.159471750E-1,1.584209176E1
1.566872144E0,-6.317582130E-1,-1.588179588E1,1.695058346E-1,1.589526002E1
1.571784853E0,-3.968198299E-1,-1.593073463E1,-2.301287651E-2,1.593569269E1
1.576697613E0,-1.735705137E-1,-1.594745827E1,-2.595797777E-1,1.595051515E1
1.581610321E0,2.194619179E-2,-1.592741585E1,-4.931873083E-1,1.593506482E1
1.586523030E0,1.902817488E-1,-1.587086773E1,-7.294576168E-1,1.588876200E1
1.591435790E0,2.936096191E-1,-1.578285885E1,-1.035940170E0,1.581954526E1
1.596348499E0,3.582808971E-1,-1.565653896E1,-1.312901735E0,1.571557471E1
1.601261259E0,3.771631718E-1,-1.544208717E1,-1.582532167E0,1.552754702E1
1.606173967E0,3.697052002E-1,-1.517566109E1,-1.797622204E0,1.528622965E1
1.611086728E0,4.176836014E-1,-1.487169743E1,-1.939497709E0,1.500344945E1
1.615999436E0,5.048135519E-1,-1.455650997E1,-2.015893459E0,1.470410302E1
1.620912196E0,5.621565580E-1,-1.423241806E1,-2.098700523E0,1.439730140E1
1.625824905E0,4.942902923E-1,-1.393276215E1,-2.154384375E0,1.410700379E1
1.630737613E0,3.371342421E-1,-1.358819580E1,-2.147272110E0,1.376094118E1
1.635650374E0,8.820211887E-2,-1.318679237E1,-2.120326042E0,1.335646118E1
1.640563082E0,-9.019386768E-2,-1.277146816E1,-2.034939289E0,1.293288490E1
1.645475842E0,-3.392796516E-1,-1.237065220E1,-1.893214703E0,1.251928147E1
1.650388551E0,-5.517169237E-1,-1.197449303E1,-1.732997775E0,1.211181886E1
1.655301311E0,-7.231481075E-1,-1.156120110E1,-1.522650599E0,1.168344037E1
1.660214019E0,-8.324747086E-1,-1.114241600E1,-1.268504381E0,1.124524574E1
1.665126728E0,-8.704191446E-1,-1.070587254E1,-9.554243088E-1,1.078360663E1
1.670039488E0,-7.988709211E-1,-1.019871140E1,-5.130497217E-1,1.024280864E1
1.674952196E0,-6.751031876E-1,-9.618396759E0,-1.005336046E-1,9.642584069E0
1.679864957E0,-5.443981886E-1,-9.019780159E0,2.329574227E-1,9.039196461E0
1.684777665E0,-4.520361423E-1,-8.409920692E0,5.261961818E-1,8.438482396E0
1.689690426E0,-3.692511320E-1,-7.741011620E0,7.792825699E-1,7.788895212E0
1.694603134E0,-2.027968168E-1,-7.053699493E0,8.728757501E-1,7.110394867E0
1.699515894E0,2.817881107E-2,-6.405236721E0,8.807805777E-1,6.465572359E0
1.704428603E0,2.760620713E-1,-5.747644424E0,8.311376572E-1,5.813984563E0
1.709341363E0,4.766851068E-1,-5.130914211E0,8.190156221E-1,5.217690670E0
1.714254071E0,7.095462084E-1,-4.370912552E0,9.013380408E-1,4.518931580E0
1.719166780E0,9.010229111E-1,-3.515587807E0,1.152056098E0,3.807680812E0
1.724079540E0,1.020205975E0,-2.619948864E0,1.451498508E0,3.164142886E0
1.728992249E0,1.074328184E0,-1.655315399E0,1.683016539E0,2.593606521E0
1.733905009E0,1.154166937E0,-6.695089340E-1,1.918990612E0,2.337278011E0
1.738817717E0,1.259732485E0,2.945394516E-1,2.140935421E0,2.501456356E0
1.743730478E0,1.357798934E0,1.246491432E0,2.378344536E0,3.008966860E0
1.748643186E0,1.484501719E0,2.215030670E0,2.643828392E0,3.754987988E0
1.753555946E0,1.702176809E0,3.200024605E0,2.952634811E0,4.674999004E0
1.758468655E0,1.874760628E0,4.306304932E0,3.286569118E0,5.732410152E0
1.763381415E0,2.057515621E0,5.535712242E0,3.553300381E0,6.892272786E0
1.768294124E0,2.260271549E0,6.825616837E0,3.717718840E0,8.094399672E0
1.773206884E0,2.478866339E0,8.053845406E0,3.818782568E0,9.251610911E0
1.778119592E0,2.651472807E0,9.301483154E0,3.856995583E0,1.041269955E1
1.783032301E0,2.869240761E0,1.061599827E1,3.820628166E0,1.164169925E1
1.787945061E0,3.109041214E0,1.190147305E1,3.764787197E0,1.286409035E1
1.792857821E0,3.390874147E0,1.312191772E1,3.713408232E0,1.405247853E1
1.797770530E0,3.665491581E0,1.422473145E1,3.659300089E0,1.513833843E1
1.802683238E0,3.807154894E0,1.524109268E1,3.614107370E0,1.611977378E1
1.807595999E0,3.816342592E0,1.616633606E1,3.520179033E0,1.697959224E1
1.812508707E0,3.585514069E0,1.696005821E1,3.410761833E0,1.766727998E1
1.817421467E0,3.351212502E0,1.759394455E1,3.330910683E0,1.821736743E1
1.822334176E0,3.141822815E0,1.808981323E1,3.259066343E0,1.864762470E1
1.827246936E0,2.908997059E0,1.850753021E1,3.319759130E0,1.902660609E1
1.832159644E0,2.601919651E0,1.884454346E1,3.570965290E0,1.935558310E1
1.837072405E0,2.195705652E0,1.917690277E1,4.025763512E0,1.971754282E1
1.841985113E0,1.844841957E0,1.943711472E1,4.558853149E0,2.004963871E1
1.846897874E0,1.627514601E0,1.958164215E1,5.145654678E0,2.031175214E1
1.851810582E0,1.478535414E0,1.956711578E1,5.713713646E0,2.043782304E1
1.856723342E0,1.301580548E0,1.948160934E1,6.288678169E0,2.051279327E1
1.861636051E0,1.100858450E0,1.932949448E1,6.805225372E0,2.052199645E1
1.866548811E0,9.499804974E-1,1.905076790E1,7.264859200E0,2.041108522E1
1.871461519E0,9.394913912E-1,1.865503311E1,7.589867592E0,2.016182022E1
1.876374280E0,9.378910065E-1,1.812822151E1,7.728564262E0,1.972923618E1
1.881286988E0,1.057897091E0,1.749964714E1,7.640492439E0,1.912417112E1
1.886199749E0,1.216349363E0,1.676777649E1,7.351532459E0,1.834891996E1
1.891112457E0,1.428409934E0,1.599329853E1,6.956441879E0,1.749908673E1
1.896025217E0,1.680809259E0,1.517487621E1,6.448770523E0,1.657373311E1
1.900937926E0,1.931553841E0,1.428740597E1,5.771473885E0,1.552967419E1
1.905850686E0,2.090826511E0,1.332014179E1,5.020383835E0,1.438756361E1
1.910763394E0,2.185779572E0,1.231723690E1,4.283790112E0,1.322281418E1
1.915676155E0,2.231285572E0,1.133454132E1,3.602058172E0,1.210063161E1
1.920588863E0,2.249284983E0,1.037742615E1,3.003808022E0,1.103508582E1
1.925501624E0,2.199301958E0,9.410408974E0,2.501527786E0,9.982503064E0
1.930414332E0,2.100409269E0,8.419471741E0,2.117471218E0,8.932127846E0
1.935327092E0,1.942911744E0,7.481171608E0,1.831599355E0,7.943399201E0
1.940239801E0,1.702424049E0,6.528542519E0,1.655171394E0,6.946920714E0
1.945152561E0,1.409322977E0,5.606931686E0,1.566417336E0,5.989786095E0
1.950065269E0,1.115518570E0,4.699410439E0,1.598940849E0,5.087774758E0
1.954978030E0,9.061142206E-1,3.798633575E0,1.683733582E0,4.252718989E0
1.959890738E0,6.798489690E-1,2.947417259E0,1.802164197E0,3.520974143E0
1.964803499E0,4.550632536E-1,2.135962486E0,1.949858427E0,2.927689566E0
1.969716207E0,3.748438358E-1,1.311491966E0,2.160935163E0,2.555417747E0
1.974628967E0,4.797946513E-1,4.619607925E-1,2.498368263E0,2.585624617E0
1.979541676E0,5.859870911E-1,-3.744583130E-1,2.841230392E0,2.925096587E0
1.984454436E0,5.738252401E-1,-1.176347733E0,3.178509474E0,3.437439726E0
1.989367144E0,3.972570002E-1,-1.970079422E0,3.529952765E0,4.061969051E0
1.994279905E0,2.445495129E-1,-2.777149677E0,3.743026495E0,4.667184605E0
1.999192613E0,1.054751873E-1,-3.528214931E0,3.808378458E0,5.192607447E0
2.004105374E0,-7.542252541E-2,-4.266332150E0,3.785456657E0,5.704117870E0
2.009018082E0,-2.700715661E-1,-4.927025795E0,3.716711998E0,6.177577997E0
2.013930842E0,-4.118139744E-1,-5.553454399E0,3.563139439E0,6.611082300E0
2.018843551E0,-5.033671260E-1,-6.193482876E0,3.369314194E0,7.068584493E0
2.023756311E0,-5.470765233E-1,-6.782623291E0,3.210635185E0,7.524058062E0
2.028669019E0,-5.333982706E-1,-7.349737644E0,3.052707911E0,7.976351468E0
2.033581780E0,-5.316200256E-1,-7.825731277E0,2.882725954E0,8.356721774E0
2.038494540E0,-4.699141979E-1,-8.273054123E0,2.723905087E0,8.722608715E0
2.043407249E0,-3.170832396E-1,-8.727728844E0,2.551841497E0,9.098664055E0
2.048320009E0,-1.448285580E-1,-9.213771820E0,2.406718016E0,9.524014808E0
2.053232717E0,2.044081688E-2,-9.726500511E0,2.302806854E0,9.995406416E0
2.058145478E0,1.284021139E-1,-1.017289448E1,2.266128778E0,1.042303261E1
2.063058186E0,1.932882071E-1,-1.061059666E1,2.225237370E0,1.084314544E1
2.067970946E0,1.960186958E-1,-1.096093750E1,2.197231770E0,1.118071561E1
2.072883655E0,6.935250759E-2,-1.126728630E1,2.161008358E0,1.147285960E1
2.077796415E0,-8.671987057E-2,-1.154665565E1,2.052341461E0,1.172795304E1
2.082709124E0,-2.489094734E-1,-1.184231758E1,1.928756237E0,1.200093922E1
2.087621884E0,-3.244062662E-1,-1.214724255E1,1.778307676E0,1.228100644E1
2.092534592E0,-3.948870897E-1,-1.242573547E1,1.584389806E0,1.253256274E1
2.097447353E0,-4.128687382E-1,-1.268754768E1,1.411729693E0,1.277252158E1
2.102360061E0,-3.738435507E-1,-1.288744545E1,1.229353309E0,1.295134428E1
2.107272821E0,-3.713083267E-1,-1.304479218E1,9.967861772E-1,1.308808830E1
2.112185530E0,-3.477602005E-1,-1.313346386E1,7.882596850E-1,1.316169303E1
2.117098290E0,-1.954139471E-1,-1.317035484E1,5.869221687E-1,1.318487432E1
2.122011051E0,-4.553067684E-2,-1.314368248E1,3.566068411E-1,1.314859805E1
2.126923759E0,1.047768593E-1,-1.309659290E1,1.114782095E-1,1.309748645E1
2.131836519E0,3.065140247E-1,-1.309359360E1,-5.091512203E-2,1.309727974E1
2.136749228E0,4.692835808E-1,-1.300083447E1,-3.053694963E-1,1.301288494E1
2.141661988E0,6.654426455E-1,-1.295712471E1,-6.571280956E-1,1.299083184E1
2.146574696E0,8.910223842E-1,-1.292662144E1,-9.995497465E-1,1.299579018E1
2.151487457E0,1.115732670E0,-1.287836742E1,-1.371941090E0,1.299920879E1
2.156400165E0,1.280433893E0,-1.280778885E1,-1.789559484E0,1.299544110E1
2.161312926E0,1.390472889E0,-1.272224617E1,-2.224450588E0,1.298988618E1
2.166225634E0,1.333755612E0,-1.267212582E1,-2.562725544E0,1.299727814E1
2.171138394E0,1.210945129E0,-1.255241299E1,-2.833976269E0,1.292520334E1
2.176051103E0,1.052982688E0,-1.239919472E1,-3.057833672E0,1.281402158E1
2.180963863E0,8.212479949E-1,-1.224843597E1,-3.189215183E0,1.268344297E1
2.185876624E0,6.421462297E-1,-1.203555870E1,-3.187514782E0,1.246704759E1
2.190789332E0,4.602594376E-1,-1.185367489E1,-3.050080299E0,1.224844631E1
2.195702092E0,3.351382017E-1,-1.169761181E1,-2.785758018E0,1.202941758E1
2.200614801E0,2.545849085E-1,-1.155254555E1,-2.429094791E0,1.180790513E1
2.205527561E0,2.206478119E-1,-1.137743568E1,-1.985847831E0,1.155155054E1
2.210440269E0,1.326138973E-1,-1.114816284E1,-1.541039705E0,1.125495111E1
2.215353030E0,-1.802444458E-4,-1.087892628E1,-1.191516399E0,1.094398229E1
2.220265790E0,-1.877348423E-1,-1.054574394E1,-8.859157562E-1,1.058455509E1
2.225178499E0,-3.635942936E-1,-1.019163990E1,-6.497360468E-1,1.021880040E1
2.230091259E0,-5.353320837E-1,-9.795103073E0,-4.229876995E-1,9.818836145E0
2.235003967E0,-6.387571096E-1,-9.384840012E0,-2.534807324E-1,9.409967331E0
2.239916728E0,-6.979478598E-1,-8.956004143E0,-1.411278844E-1,8.984267277E0
2.244829436E0,-6.223102808E-1,-8.432086945E0,-1.889008284E-2,8.455040932E0
2.249742196E0,-4.520634413E-1,-7.887164116E0,1.727652550E-1,7.901997658E0
2.254654905E0,-1.386028528E-1,-7.361674309E0,3.306379616E-1,7.370398961E0
2.259567665E0,2.113376260E-1,-6.781311989E0,4.376250207E-1,6.798703666E0
2.264480426E0,5.007483959E-1,-6.210497379E0,4.957208037E-1,6.250341252E0
2.269393134E0,6.826937795E-1,-5.596482277E0,5.569549799E-1,5.665411152E0
2.274305894E0,6.548050642E-1,-4.901003838E0,5.823053122E-1,4.978723508E0
2.279218603E0,5.343025923E-1,-4.104980946E0,6.117152572E-1,4.184560118E0
2.284131363E0,4.738707542E-1,-3.301600456E0,7.089492083E-1,3.409945461E0
2.289044124E0,4.993877411E-1,-2.538400173E0,8.403137922E-1,2.720108605E0
2.293956832E0,5.652883053E-1,-1.757675648E0,1.063434958E0,2.130696708E0
2.298869592E0,6.478019953E-1,-1.002202988E0,1.431532383E0,1.863690751E0
2.303782301E0,7.329465151E-1,-1.761808395E-1,1.955195665E0,2.095480941E0
2.308695061E0,8.161950707E-1,6.247482300E-1,2.492500305E0,2.696116191E0
2.313607769E0,8.498206139E-1,1.522418976E0,2.992554665E0,3.463428653E0
2.318520530E0,8.647491336E-1,2.525980949E0,3.428575993E0,4.345515408E0
2.323433238E0,8.104332089E-1,3.539371490E0,3.821316481E0,5.271281835E0
2.328345999E0,7.080342174E-1,4.495316505E0,4.179469585E0,6.178765973E0
2.333258759E0,7.530957460E-1,5.386364937E0,4.499538898E0,7.058748525E0
2.338171467E0,8.614379168E-1,6.219420433E0,4.720366001E0,7.855260721E0
2.343084228E0,1.056855917E0,7.116005898E0,4.833475113E0,8.667004444E0
2.347996936E0,1.277553201E0,8.140045166E0,4.925809860E0,9.599795845E0
2.352909696E0,1.529097438E0,9.245441437E0,4.959706306E0,1.060259463E1
2.357822457E0,1.709678292E0,1.042445660E1,4.828026772E0,1.161473795E1
2.362735165E0,1.839550495E0,1.153813171E1,4.580885410E0,1.254977851E1
2.367647926E0,1.936566114E0,1.254119968E1,4.107419014E0,1.333802342E1
2.372560634E0,1.973031044E0,1.343169498E1,3.521008492E0,1.402500561E1
2.377473394E0,1.921043158E0,1.428666019E1,2.891462564E0,1.470236791E1
2.382386103E0,1.749851584E0,1.497992325E1,2.248093605E0,1.524840995E1
2.387298863E0,1.595569968E0,1.554315758E1,1.768872976E0,1.572464634E1
2.392211624E0,1.421715498E0,1.603402710E1,1.527245998E0,1.616922324E1
2.397124332E0,1.241726637E0,1.650024796E1,1.561643839E0,1.662043318E1
2.402037092E0,1.171681881E0,1.691268539E1,1.894634485E0,1.705876331E1
2.406949801E0,1.114671350E0,1.727544022E1,2.475415230E0,1.748745286E1
2.411862561E0,1.117627382E0,1.755428696E1,3.162619114E0,1.787188410E1
2.416775321E0,1.206005335E0,1.770310593E1,3.836564541E0,1.815416304E1
2.421688030E0,1.333560944E0,1.776918411E1,4.451460838E0,1.836675781E1
2.426600790E0,1.447291136E0,1.770905685E1,4.963574409E0,1.844837167E1
2.431513499E0,1.671491623E0,1.762056160E1,5.311911583E0,1.847956926E1
2.436426259E0,1.906031847E0,1.748684692E1,5.621457577E0,1.846682317E1
2.441339019E0,2.161253929E0,1.719581795E1,5.679376602E0,1.823794100E1
2.446251728E0,2.524549246E0,1.675056076E1,5.547269821E0,1.782489375E1
2.451164488E0,2.889490604E0,1.623549271E1,5.334162712E0,1.733186866E1
2.456077196E0,3.156991482E0,1.566809559E1,5.009962082E0,1.674979208E1
2.460989957E0,3.400067329E0,1.508020306E1,4.635193825E0,1.613871134E1
2.465902717E0,3.596238136E0,1.438894367E1,4.133828163E0,1.539685565E1
2.470815426E0,3.739458323E0,1.365257072E1,3.604326248E0,1.460710114E1
2.475728186E0,3.832935333E0,1.287171841E1,3.183613539E0,1.380246077E1
2.480640894E0,3.819623947E0,1.208036613E1,2.776948452E0,1.297059042E1
2.485553655E0,3.697292805E0,1.127889919E1,2.435740709E0,1.211678067E1
2.490466415E0,3.499210835E0,1.047712517E1,2.207081079E0,1.126436128E1
2.495379124E0,3.294325113E0,9.703833580E0,2.071452379E0,1.045504084E1
2.500291884E0,3.067607880E0,8.880171776E0,2.045567274E0,9.615197052E0
2.505204644E0,2.768016815E0,8.068405151E0,2.072185755E0,8.778099599E0
2.510117353E0,2.497398376E0,7.254137993E0,2.161419630E0,7.970649377E0
2.515030113E0,2.156518459E0,6.444505692E0,2.294820309E0,7.172755797E0
2.519942821E0,1.871171355E0,5.610780716E0,2.473044157E0,6.410779195E0
2.524855582E0,1.575608492E0,4.839006424E0,2.605892658E0,5.717447143E0
2.529768342E0,1.302363992E0,4.016767502E0,2.753714800E0,5.041182235E0
2.534681051E0,9.979642630E-1,3.175286293E0,2.864106178E0,4.391068197E0
2.539593811E0,7.477659583E-1,2.391141891E0,2.956233740E0,3.875052438E0
2.544506519E0,5.465391874E-1,1.659448624E0,3.025732756E0,3.493928094E0
2.549419280E0,3.868313432E-1,9.825563431E-1,3.141966820E0,3.314666039E0
2.554332040E0,3.116789460E-1,3.054943085E-1,3.223473549E0,3.252883683E0
2.559244749E0,2.541472912E-1,-3.620681763E-1,3.241363525E0,3.271409744E0
2.564157509E0,2.717622817E-1,-1.010482788E0,3.240853786E0,3.405592969E0
2.569070217E0,2.906125784E-1,-1.637269974E0,3.190466881E0,3.597803157E0
2.573982978E0,2.845133245E-1,-2.220857143E0,3.070708513E0,3.800316442E0
2.578895738E0,2.680944204E-1,-2.730149269E0,2.945590734E0,4.025182533E0
2.583808446E0,2.798818946E-1,-3.153245926E0,2.838335037E0,4.251757228E0
2.588721207E0,2.720802128E-1,-3.569086075E0,2.664257526E0,4.462137517E0
2.593633967E0,3.046427965E-1,-3.991981506E0,2.499099255E0,4.719557253E0
2.598546676E0,3.851008415E-1,-4.443398952E0,2.284312487E0,5.011005932E0
2.603459436E0,5.331621766E-1,-4.887443542E0,2.059426785E0,5.330347547E0
2.608372144E0,5.936129093E-1,-5.326586723E0,1.885489941E0,5.681546860E0
2.613284905E0,6.192908883E-1,-5.741837978E0,1.787944555E0,6.045574440E0
2.618197665E0,5.932881832E-1,-6.181191921E0,1.799854994E0,6.465183867E0
2.623110374E0,4.841679633E-1,-6.649558544E0,1.849485874E0,6.918933837E0
2.628023134E0,3.751313686E-1,-7.044314384E0,1.968001485E0,7.323668380E0
2.632935894E0,3.446977735E-1,-7.444606781E0,2.098363638E0,7.742358596E0
2.637848603E0,3.470905423E-1,-7.867271900E0,2.148017645E0,8.162623279E0
2.642761363E0,3.125450611E-1,-8.338668823E0,2.265890121E0,8.646695334E0
2.647674071E0,2.382677794E-1,-8.784729958E0,2.388097286E0,9.106660234E0
2.652586832E0,1.214262247E-1,-9.174546242E0,2.388470650E0,9.481130477E0
2.657499592E0,4.756629467E-2,-9.551345825E0,2.270020962E0,9.817508074E0
2.662412301E0,-4.632771015E-2,-9.934412003E0,2.107367516E0,1.015557413E1
2.667325061E0,-1.560453176E-1,-1.035971642E1,1.891088724E0,1.053206015E1
2.672237821E0,-2.222748995E-1,-1.079148293E1,1.597237825E0,1.091130966E1
2.677150530E0,-3.647862673E-1,-1.118922615E1,1.237415791E0,1.126334980E1
2.682063290E0,-4.925663471E-1,-1.151489830E1,9.091926813E-1,1.156123418E1
2.686976051E0,-6.558830738E-1,-1.180221176E1,6.409096122E-1,1.183778485E1
2.691888759E0,-8.071115017E-1,-1.199641037E1,4.633572102E-1,1.203245572E1
2.696801519E0,-9.394383430E-1,-1.213845634E1,3.162838221E-1,1.217886293E1
2.701714228E0,-1.017421842E0,-1.231463242E1,6.795442104E-2,1.235677695E1
2.706626988E0,-9.504314661E-1,-1.253693390E1,-1.908210516E-1,1.257435661E1
2.711539749E0,-8.245646954E-1,-1.276471615E1,-3.145186901E-1,1.279518688E1
2.716452457E0,-5.985646248E-1,-1.292147827E1,-4.421956539E-1,1.294289061E1
2.721365217E0,-2.811706066E-1,-1.300968361E1,-5.765088797E-1,1.302548606E1
2.726277978E0,8.090949059E-2,-1.302700424E1,-7.681162357E-1,1.304988078E1
2.731190686E0,4.024762511E-1,-1.303334999E1,-1.029651523E0,1.308015219E1
2.736103446E0,6.318141222E-1,-1.303128242E1,-1.309819818E0,1.311217521E1
2.741016207E0,8.174032569E-1,-1.298034859E1,-1.638444543E0,1.310885571E1
2.745928915E0,8.948653936E-1,-1.293341160E1,-1.952063918E0,1.311047189E1
2.750841676E0,8.163416982E-1,-1.281416512E1,-2.167903423E0,1.302186802E1
2.755754436E0,6.652908325E-1,-1.264909649E1,-2.281638145E0,1.287043614E1
2.760667144E0,5.227717757E-1,-1.243342209E1,-2.216579676E0,1.264027296E1
2.765579905E0,3.910292387E-1,-1.219087887E1,-2.046067715E0,1.236757149E1
2.770492613E0,3.130792975E-1,-1.199048424E1,-1.754506707E0,1.212221204E1
2.775405374E0,2.985076308E-1,-1.178641033E1,-1.419529796E0,1.187533748E1
2.780318134E0,2.491354942E-1,-1.155685902E1,-1.109150529E0,1.161263423E1
2.785230842E0,1.576482058E-1,-1.126818275E1,-8.532428741E-1,1.130154056E1
2.790143603E0,9.062135220E-2,-1.094185734E1,-6.748756170E-1,1.096302473E1
2.795056363E0,1.207244396E-2,-1.060648251E1,-5.422766209E-1,1.062034278E1
2.799969071E0,-4.686075449E-2,-1.025001335E1,-4.838141203E-1,1.026153233E1
2.804881832E0,-7.422381639E-2,-9.850890160E0,-4.562761784E-1,9.861730784E0
2.809794592E0,-1.921338439E-1,-9.356559753E0,-4.430128336E-1,9.369012019E0
2.814707301E0,-2.527709007E-1,-8.810183525E0,-4.610059261E-1,8.825857088E0
2.819620061E0,-2.395865917E-1,-8.226110458E0,-4.507279396E-1,8.241932461E0
2.824532821E0,-9.012216330E-2,-7.690316200E0,-4.055026770E-1,7.701526971E0
2.829445530E0,1.674447656E-1,-7.183426857E0,-3.590787947E-1,7.194344775E0
2.834358290E0,3.807034194E-1,-6.650259972E0,-2.663485110E-1,6.666470904E0
2.839271051E0,6.125571728E-1,-6.128931046E0,-5.821812153E-2,6.159741180E0
2.844183759E0,8.469761610E-1,-5.585786819E0,1.122402400E-1,5.650750471E0
2.849096519E0,1.170995593E0,-5.073276043E0,3.359136283E-1,5.217489670E0
2.854009280E0,1.458621025E0,-4.541007996E0,5.789697170E-1,4.804532739E0
2.858921988E0,1.605325580E0,-3.912393093E0,7.738633752E-1,4.299157412E0
2.863834749E0,1.599618793E0,-3.208947659E0,8.914826512E-1,3.694707928E0
2.868747509E0,1.523138404E0,-2.461683750E0,1.017635107E0,3.068455425E0
2.873660217E0,1.433331251E0,-1.770853043E0,1.168901443E0,2.560603358E0
2.878572978E0,1.329721928E0,-1.188749313E0,1.414902449E0,2.276671754E0
2.883485738E0,1.190432906E0,-5.955333710E-1,1.684580088E0,2.146998037E0
2.888398446E0,1.015032530E0,-4.612445831E-2,2.026990414E0,2.267401296E0
2.893311207E0,8.292281032E-1,4.953880310E-1,2.453025341E0,2.636353897E0
2.898223967E0,6.202653050E-1,1.004999161E0,2.925931931E0,3.155286045E0
2.903136676E0,4.685145319E-1,1.492065430E0,3.433220863E0,3.772634439E0
2.908049436E0,3.059155047E-1,1.987341881E0,3.938409090E0,4.422010652E0
2.912962196E0,2.510261238E-1,2.597887993E0,4.433889389E0,5.145037537E0
2.917874905E0,2.120085657E-1,3.222496986E0,4.881219387E0,5.852840094E0
2.922787665E0,1.232332140E-1,3.958481789E0,5.260801315E0,6.584891417E0
2.927700426E0,8.427518606E-2,4.766846657E0,5.490251541E0,7.271367914E0
2.932613134E0,2.212644964E-1,5.764244080E0,5.500644684E0,7.970731442E0
2.937525894E0,5.651282668E-1,6.921521187E0,5.244039536E0,8.702113315E0
2.942438655E0,1.107415318E0,8.176316261E0,4.769848824E0,9.530476068E0
2.947351415E0,1.812344313E0,9.526276588E0,4.112441063E0,1.053312437E1
2.952264124E0,2.602510929E0,1.082330608E1,3.358323574E0,1.162735374E1
2.957176884E0,3.343817234E0,1.206298637E1,2.545766354E0,1.277410194E1
2.962089644E0,3.942008734E0,1.327447224E1,1.777282238E0,1.396100921E1
2.967002353E0,4.268673897E0,1.437237453E1,9.420557022E-1,1.502245638E1
2.971915113E0,4.263684273E0,1.527626419E1,7.576179504E-2,1.586029606E1
2.976827874E0,3.918083668E0,1.600146294E1,-5.868148804E-1,1.648461548E1
2.981740582E0,3.307331562E0,1.653442764E1,-8.410122395E-1,1.688292158E1
2.986653342E0,2.630445719E0,1.686844254E1,-6.769394875E-1,1.708572051E1
2.991566103E0,1.901391864E0,1.703211975E1,-9.257984161E-2,1.713817275E1
2.996478811E0,1.128669739E0,1.719454193E1,9.009265900E-1,1.725508146E1
3.001391571E0,3.943757117E-1,1.730665970E1,2.149471760E0,1.744408871E1
3.006304332E0,-1.447344124E-1,1.726409721E1,3.482829094E0,1.761249838E1
3.011217040E0,-4.820177257E-1,1.715601349E1,4.864753723E0,1.783891725E1
3.016129801E0,-7.155064344E-1,1.706429291E1,6.210652828E0,1.817344905E1
3.021042561E0,-8.010927439E-1,1.694432068E1,7.341851234E0,1.848389927E1
3.025955269E0,-7.127352953E-1,1.678316498E1,8.088230133E0,1.864408981E1
3.030868030E0,-5.000019073E-1,1.643465042E1,8.427001953E0,1.847598707E1
3.035780790E0,-2.500551641E-1,1.606663895E1,8.458421707E0,1.815886319E1
3.040693499E0,6.746706367E-2,1.567045689E1,8.149992943E0,1.766324307E1
3.045606259E0,4.329915047E-1,1.516615105E1,7.597558498E0,1.696827965E1
3.050519019E0,7.407184243E-1,1.463434792E1,6.848317146E0,1.617443200E1
3.055431780E0,1.016340256E0,1.399057865E1,6.033039093E0,1.526980023E1
3.060344488E0,1.295032740E0,1.331768227E1,5.170097351E0,1.434460447E1
3.065257249E0,1.595108628E0,1.254035568E1,4.400152206E0,1.338529909E1
3.070170009E0,1.819529891E0,1.169783974E1,3.799731970E0,1.243334656E1
3.075082717E0,1.973514795E0,1.084568882E1,3.338572264E0,1.151823734E1
3.079995478E0,2.059736967E0,1.001523304E1,3.056365252E0,1.067186852E1
3.084908238E0,2.085274458E0,9.149095535E0,2.919327974E0,9.827349312E0
3.089820946E0,1.970875144E0,8.278309822E0,2.910903454E0,8.993782367E0
3.094733707E0,1.758736014E0,7.405092239E0,2.895402908E0,8.143211986E0
3.099646467E0,1.452485681E0,6.541289330E0,2.894944191E0,7.299238495E0
3.104559228E0,1.050679207E0,5.658047676E0,2.938948631E0,6.461799235E0
3.109471936E0,6.786515713E-1,4.798230171E0,2.944584608E0,5.670463759E0
3.114384696E0,3.736015558E-1,3.937766075E0,2.962825775E0,4.942055884E0
3.119297457E0,1.464407742E-1,3.112385750E0,3.003919363E0,4.328038990E0
3.124210165E0,-1.112542301E-1,2.310029030E0,3.032466888E0,3.813720893E0
3.129122926E0,-3.211683631E-1,1.516360283E0,3.015132904E0,3.390210031E0
3.134035686E0,-5.365887880E-1,7.529716492E-1,2.920816898E0,3.063668583E0
3.138948394E0,-7.006556392E-1,-2.070236206E-2,2.876073837E0,2.960261412E0
3.143861155E0,-7.343995571E-1,-7.710361481E-1,2.813570023E0,3.008324405E0
3.148773915E0,-6.975180507E-1,-1.471598625E0,2.716112137E0,3.166922652E0
3.153686624E0,-6.398819685E-1,-2.107946396E0,2.564092159E0,3.380451973E0
3.158599384E0,-5.731621981E-1,-2.711050987E0,2.409329891E0,3.671945382E0
3.163512144E0,-4.513566196E-1,-3.240154266E0,2.282123566E0,3.988785584E0
3.168424905E0,-2.113166451E-1,-3.692807198E0,2.164866924E0,4.285805470E0
3.173337613E0,1.243302226E-1,-4.169357777E0,1.982611418E0,4.618414263E0
3.178250374E0,4.296772480E-1,-4.605107784E0,1.770377278E0,4.952360644E0
3.183163134E0,6.240927577E-1,-5.090868950E0,1.572471380E0,5.364615986E0
3.188075842E0,7.102393508E-1,-5.540506840E0,1.308907151E0,5.737150330E0
3.192988603E0,6.759971380E-1,-5.961321831E0,1.040978789E0,6.089168001E0
3.197901363E0,5.783423781E-1,-6.334378719E0,8.755792379E-1,6.420706555E0
3.202814124E0,4.499130249E-1,-6.741239548E0,7.740432620E-1,6.800431997E0
3.207726832E0,3.403147161E-1,-7.072115898E0,8.320336938E-1,7.129019389E0
3.212639592E0,2.395594120E-1,-7.387096882E0,9.997739792E-1,7.458293174E0
3.217552353E0,1.999725103E-1,-7.741371155E0,1.201713800E0,7.836640378E0
3.222465061E0,1.735587120E-1,-8.130226135E0,1.419639945E0,8.255063731E0
3.227377821E0,1.005094051E-1,-8.618237495E0,1.604138255E0,8.766834047E0
3.232290582E0,2.179682255E-3,-9.078639984E0,1.705342174E0,9.237418505E0
3.237203342E0,-1.383552551E-1,-9.547409058E0,1.617997646E0,9.684527778E0
3.242116051E0,-2.974277139E-1,-1.002462196E1,1.372930288E0,1.012257113E1
3.247028811E0,-5.473822355E-1,-1.048890400E1,1.038891673E0,1.055443179E1
3.251941571E0,-8.196204305E-1,-1.094046688E1,7.322583199E-1,1.099553525E1
3.256854280E0,-1.150732994E0,-1.130064678E1,3.996565640E-1,1.136611321E1
3.261767040E0,-1.477131844E0,-1.156503391E1,5.975127220E-2,1.165913797E1
3.266679801E0,-1.845316291E0,-1.172443581E1,-2.279508710E-1,1.187095400E1
3.271592561E0,-2.145956516E0,-1.187239075E1,-4.012871385E-1,1.207144659E1
3.276505269E0,-2.278647900E0,-1.196829224E1,-3.234469295E-1,1.218757044E1
3.281418030E0,-2.185185671E0,-1.210052395E1,-1.060017347E-1,1.229670495E1
3.286330790E0,-1.914364100E0,-1.223773289E1,1.133125424E-1,1.238707939E1
3.291243551E0,-1.620238066E0,-1.240600586E1,2.181360126E-1,1.251326241E1
3.296156259E0,-1.402150750E0,-1.249285316E1,1.822485328E-1,1.257261395E1
3.301069019E0,-1.307155371E0,-1.251752567E1,7.582128048E-3,1.258559342E1
3.305981780E0,-1.267902255E0,-1.247064495E1,-3.187946677E-1,1.253898687E1
3.310894488E0,-1.315701723E0,-1.236684322E1,-7.360995412E-1,1.245839977E1
3.315807249E0,-1.352696419E0,-1.229959583E1,-1.207329035E0,1.243251739E1
3.320720009E0,-1.417418003E0,-1.230245209E1,-1.592555761E0,1.248581735E1
3.325632717E0,-1.440625548E0,-1.224628925E1,-1.806543112E0,1.246236737E1
3.330545478E0,-1.458553314E0,-1.213598824E1,-1.897508383E0,1.236972620E1
3.335458238E0,-1.418575287E0,-1.201456547E1,-1.862724781E0,1.224058344E1
3.340370999E0,-1.315983176E0,-1.191297913E1,-1.694482327E0,1.210463356E1
3.345283759E0,-1.143630505E0,-1.179518509E1,-1.523560882E0,1.194803414E1
3.350196467E0,-1.004413843E0,-1.167538834E1,-1.413633227E0,1.180346978E1
3.355109228E0,-8.863980770E-1,-1.154148197E1,-1.272880316E0,1.164524504E1
3.360021988E0,-7.273542881E-1,-1.134791088E1,-1.074205637E0,1.142182312E1
3.364934749E0,-5.344494581E-1,-1.108744717E1,-8.646399975E-1,1.113394464E1
3.369847457E0,-3.886830807E-1,-1.074811554E1,-7.584383488E-1,1.078185007E1
3.374760217E0,-2.659072280E-1,-1.040404892E1,-7.097706795E-1,1.043162092E1
3.379672978E0,-1.252417415E-1,-1.002410698E1,-7.807900310E-1,1.005524934E1
3.384585686E0,3.127949312E-2,-9.720639229E0,-8.664460182E-1,9.759228152E0
3.389498446E0,1.826166958E-1,-9.424150467E0,-9.649167657E-1,9.475179431E0
3.394411207E0,2.839872837E-1,-9.084371567E0,-1.163245320E0,9.162946863E0
3.399323967E0,3.648068011E-1,-8.720420837E0,-1.467257261E0,8.850517920E0
3.404236676E0,4.257324338E-1,-8.246170044E0,-1.732123971E0,8.436872759E0
3.409149436E0,4.190967679E-1,-7.707049370E0,-1.901504159E0,7.949211920E0
3.414062196E0,4.068173766E-1,-7.102946281E0,-1.906615615E0,7.365631633E0
3.418974957E0,4.817748964E-1,-6.512601852E0,-1.725981116E0,6.754635501E0
3.423887665E0,6.339832544E-1,-5.928606987E0,-1.286838889E0,6.099694246E0
3.428800426E0,8.899676800E-1,-5.329318047E0,-6.019018888E-1,5.436539267E0
3.433713186E0,1.130408406E0,-4.721890450E0,1.009243727E-1,4.856362663E0
3.438625946E0,1.410876274E0,-4.135076046E0,7.395048738E-1,4.431285730E0
3.443538655E0,1.681731582E0,-3.533052444E0,1.295544982E0,4.121785716E0
3.448451415E0,1.804654360E0,-2.930241585E0,1.649958491E0,3.816471686E0
3.453364176E0,1.784336567E0,-2.247722149E0,1.778873444E0,3.376463027E0
3.458276936E0,1.603299260E0,-1.483085632E0,1.806390047E0,2.834282363E0
3.463189644E0,1.339244843E0,-5.812692642E-1,1.830225229E0,2.341190957E0
3.468102405E0,1.163332462E0,3.357305527E-1,1.917442918E0,2.267740013E0
3.473015165E0,1.216065526E0,1.241579056E0,2.161916733E0,2.773845323E0
3.477927926E0,1.423049569E0,2.274772644E0,2.502416372E0,3.669025533E0
3.482840634E0,1.629027843E0,3.432496071E0,2.782071590E0,4.709106425E0
3.487753394E0,1.920065880E0,4.578082085E0,2.968297482E0,5.784140256E0
3.492666155E0,2.219747305E0,5.716073990E0,3.138372421E0,6.888407756E0
3.497578915E0,2.742061615E0,6.968157768E0,3.103502274E0,8.105914566E0
3.502491624E0,3.450631142E0,8.360229492E0,2.889782906E0,9.494795294E0
3.507404384E0,3.900449276E0,9.617035866E0,2.443871737E0,1.066177248E1
3.512317144E0,4.007465363E0,1.064553070E1,1.987306118E0,1.154714199E1
3.517229853E0,3.851459742E0,1.163965321E1,1.718211174E0,1.238012595E1
3.522142613E0,3.446347952E0,1.270223427E1,1.631704569E0,1.326222189E1
3.527055374E0,2.785963535E0,1.379252338E1,1.723293543E0,1.417621370E1
3.531968134E0,2.040912151E0,1.469523335E1,1.995918512E0,1.496993307E1
3.536880842E0,1.475062609E0,1.526691341E1,2.481545925E0,1.553745555E1
3.541793603E0,1.039335132E0,1.560779572E1,3.215180397E0,1.596937349E1
3.546706363E0,5.675476789E-1,1.589188385E1,4.205804825E0,1.644879561E1
3.551619124E0,1.401716471E-1,1.623064041E1,5.173202038E0,1.703570825E1
3.556531832E0,-1.044381261E-1,1.636949921E1,6.021499634E0,1.744218649E1
3.561444592E0,-1.065494418E-1,1.655635834E1,6.867319107E0,1.792440866E1
3.566357353E0,3.138514757E-1,1.677588463E1,7.568494320E0,1.840681705E1
3.571270113E0,7.824670076E-1,1.690789795E1,7.984520435E0,1.871474911E1
3.576182821E0,1.156445026E0,1.693553162E1,8.194705009E0,1.884947709E1
3.581095582E0,1.373997808E0,1.687106323E1,8.093448639E0,1.876231743E1
3.586008342E0,1.513895512E0,1.679401970E1,7.725484848E0,1.854761692E1
3.590921103E0,1.606950283E0,1.666684723E1,7.254766464E0,1.824822518E1
3.595833811E0,1.717613697E0,1.641149521E1,6.708546638E0,1.781269126E1
3.600746571E0,1.865038753E0,1.600494194E1,6.150037766E0,1.724701425E1
3.605659332E0,2.042106867E0,1.550761986E1,5.695575714E0,1.664620247E1
3.610572092E0,2.208089352E0,1.492717171E1,5.387575150E0,1.602254910E1
3.615484801E0,2.415775299E0,1.431171417E1,5.170702934E0,1.540770267E1
3.620397561E0,2.718423367E0,1.359919453E1,5.049685955E0,1.475897170E1
3.625310321E0,3.035433531E0,1.283288288E1,4.964577675E0,1.409055610E1
3.630223082E0,3.377657890E0,1.200354481E1,4.754571915E0,1.334539677E1
3.635135842E0,3.729619026E0,1.114516449E1,4.418760300E0,1.255588277E1
3.640048551E0,3.927159548E0,1.027029419E1,4.037228584E0,1.171327194E1
3.644961311E0,3.999670029E0,9.405874252E0,3.579767942E0,1.082970772E1
3.649874071E0,4.000145912E0,8.542865753E0,3.107253790E0,9.931603532E0
3.654786832E0,3.928612709E0,7.736720085E0,2.695037603E0,9.085926655E0
3.659699540E0,3.834937334E0,6.882468224E0,2.399762154E0,8.236138148E0
3.664612301E0,3.649082661E0,6.020970345E0,2.218802929E0,7.381800227E0
3.669525061E0,3.403772354E0,5.252696991E0,2.140370846E0,6.614958751E0
3.674437821E0,3.117294788E0,4.493801117E0,2.133934021E0,5.870728207E0
3.679350530E0,2.712009430E0,3.744138718E0,2.198177338E0,5.119136010E0
3.684263290E0,2.217306852E0,3.041933060E0,2.317199945E0,4.420319220E0
3.689176051E0,1.727143884E0,2.365574837E0,2.427271843E0,3.804026670E0
3.694088811E0,1.261486053E0,1.669587135E0,2.538713932E0,3.289975181E0
3.699001571E0,9.029719830E-1,8.822488785E-1,2.647361755E0,2.932958532E0
3.703914280E0,6.939386725E-1,1.232242584E-1,2.837404728E0,2.923628001E0
3.708827040E0,6.129251122E-1,-5.954551697E-1,2.955512524E0,3.076572497E0
3.713739801E0,6.533260345E-1,-1.278476715E0,2.955931664E0,3.286163358E0
3.718652561E0,7.228169441E-1,-1.932853699E0,2.912091255E0,3.569126396E0
3.723565269E0,8.199617267E-1,-2.512931824E0,2.815481186E0,3.861877509E0
3.728478030E0,9.216160774E-1,-3.063988686E0,2.602327824E0,4.124259080E0
3.733390790E0,9.901982546E-1,-3.619339943E0,2.306860447E0,4.404738281E0
3.738303551E0,9.710285664E-1,-4.174104691E0,2.023259640E0,4.739158788E0
3.743216259E0,9.237488508E-1,-4.728304386E0,1.829325199E0,5.153310100E0
3.748129019E0,8.026366830E-1,-5.234227180E0,1.669324756E0,5.552297269E0
3.753041780E0,6.335131526E-1,-5.797297478E0,1.578781962E0,6.041733977E0
3.757954540E0,4.638489485E-1,-6.341125011E0,1.567436457E0,6.548425712E0
3.762867301E0,2.551973760E-1,-6.904177666E0,1.621334791E0,7.096585196E0
3.767780009E0,7.196670771E-2,-7.390958786E0,1.724260807E0,7.589764576E0
3.772692769E0,-1.652131677E-1,-7.875841618E0,1.750043154E0,8.069623759E0
3.777605530E0,-4.855959117E-1,-8.435478210E0,1.749753594E0,8.628715644E0
3.782518290E0,-9.236554503E-1,-9.050790787E0,1.798379898E0,9.273840818E0
3.787431051E0,-1.368019581E0,-9.681198120E0,1.860678792E0,9.952848848E0
3.792343759E0,-1.760021925E0,-1.034831810E1,1.848963380E0,1.065851914E1
3.797256519E0,-2.050322056E0,-1.107370663E1,1.735236168E0,1.139481652E1
3.802169280E0,-2.289919376E0,-1.184778214E1,1.517555237E0,1.216209876E1
3.807082040E0,-2.407021761E0,-1.251030445E1,1.253223419E0,1.280125151E1
3.811994749E0,-2.281218767E0,-1.307335472E1,8.888927102E-1,1.330062754E1
3.816907509E0,-2.057218790E0,-1.341513062E1,4.376346767E-1,1.357900595E1
3.821820269E0,-1.846284270E0,-1.353842735E1,-9.045189619E-2,1.366403902E1
3.826733030E0,-1.695454478E0,-1.360158539E1,-6.928406954E-1,1.372434768E1
3.831645790E0,-1.527471304E0,-1.368868065E1,-1.330850363E0,1.383778556E1
3.836558499E0,-1.375145435E0,-1.375219154E1,-1.900993824E0,1.395089871E1
3.841471259E0,-1.202053070E0,-1.386420250E1,-2.265983105E0,1.409949368E1
3.846384019E0,-1.029264212E0,-1.391969299E1,-2.498383999E0,1.417953315E1
3.851296780E0,-9.641579986E-1,-1.401220226E1,-2.636989594E0,1.429073571E1
3.856209488E0,-9.419234395E-1,-1.409402657E1,-2.674905300E0,1.437650594E1
3.861122249E0,-1.039296865E0,-1.424900055E1,-2.657722473E0,1.453195250E1
3.866035009E0,-1.175339460E0,-1.432166481E1,-2.546873569E0,1.459376822E1
3.870947769E0,-1.307934284E0,-1.439341736E1,-2.332204819E0,1.463968356E1
3.875860530E0,-1.454809189E0,-1.443547058E1,-2.027103424E0,1.464951975E1
3.880773238E0,-1.549932241E0,-1.447875786E1,-1.620576262E0,1.465138173E1
3.885685999E0,-1.570193291E0,-1.442262650E1,-1.206809521E0,1.455795491E1
3.890598759E0,-1.515923977E0,-1.431236076E1,-7.220046520E-1,1.441051654E1
3.895511519E0,-1.399365425E0,-1.412386322E1,-3.273359537E-1,1.419679135E1
3.900424280E0,-1.208283901E0,-1.389527512E1,-5.520737171E-2,1.394781949E1
3.905336988E0,-9.806465507E-1,-1.365998840E1,4.464381933E-2,1.369521610E1
3.910249749E0,-8.095611930E-1,-1.334620476E1,-6.111681461E-3,1.337073701E1
3.915162509E0,-6.685350537E-1,-1.298986244E1,-1.624586582E-1,1.300806896E1
3.920075269E0,-5.933699608E-1,-1.254316330E1,-3.891213536E-1,1.256321809E1
3.924987978E0,-4.618169367E-1,-1.207072735E1,-5.982723832E-1,1.209436495E1
3.929900738E0,-2.518812120E-1,-1.160356903E1,-7.523144484E-1,1.163065929E1
3.934813499E0,3.953886032E-2,-1.117265034E1,-8.472577929E-1,1.120479918E1
3.939726259E0,4.180979133E-1,-1.078017807E1,-9.436075091E-1,1.082947091E1
3.944639019E0,8.127253652E-1,-1.031836128E1,-9.536285996E-1,1.039415747E1
3.949551728E0,1.185626626E0,-9.756011963E0,-8.847801089E-1,9.867538485E0
3.954464488E0,1.537051916E0,-9.128915787E0,-7.133046389E-1,9.284849786E0
3.959377249E0,1.850869417E0,-8.432143211E0,-5.204974413E-1,8.648564871E0
3.964290009E0,2.115981579E0,-7.801849365E0,-2.582940459E-1,8.087827111E0
3.969202769E0,2.395345688E0,-7.151654243E0,4.029652104E-2,7.542245235E0
3.974115478E0,2.553096294E0,-6.488560200E0,3.876808286E-1,6.983552862E0
3.979028238E0,2.637358904E0,-5.838692665E0,6.454846263E-1,6.439149356E0
3.983940999E0,2.588566303E0,-5.194678307E0,9.072822332E-1,5.874395226E0
3.988853759E0,2.485498190E0,-4.513296127E0,1.252551556E0,5.302492677E0
3.993766519E0,2.248563290E0,-3.756174088E0,1.612575889E0,4.665327603E0
3.998679280E0,1.941659927E0,-2.877843857E0,1.995415330E0,4.004211642E0
4.003591988E0,1.621401429E0,-2.040970325E0,2.351798534E0,3.510763280E0
4.008504749E0,1.330273509E0,-1.322019100E0,2.749889851E0,3.328551682E0
4.013417509E0,1.151325226E0,-6.706781387E-1,3.176338673E0,3.444486363E0
4.018330269E0,1.009433746E0,-6.064796448E-2,3.589097500E0,3.728841043E0
4.023242978E0,8.503697515E-1,6.443109512E-1,3.953341007E0,4.094773551E0
4.028155738E0,7.968338728E-1,1.541942596E0,4.411452770E0,4.740616704E0
4.033068499E0,9.049746394E-1,2.657973289E0,4.979272842E0,5.716376400E0
4.037981259E0,1.172054291E0,3.895976067E0,5.553276062E0,6.884127816E0
4.042894019E0,1.670043945E0,5.207441330E0,6.027183533E0,8.138392551E0
4.047806728E0,2.364379883E0,6.546329498E0,6.315644741E0,9.398515342E0
4.052719488E0,3.154691935E0,7.928863525E0,6.423526764E0,1.068085456E1
4.057632249E0,3.907689571E0,9.373802185E0,6.280601501E0,1.194086096E1
4.062545009E0,4.598427773E0,1.081165123E1,5.791684151E0,1.309889101E1
4.067457717E0,5.109018326E0,1.210628510E1,4.944550514E0,1.403968614E1
4.072370478E0,5.325769901E0,1.318898487E1,3.915458202E0,1.475276109E1
4.077283238E0,5.260853767E0,1.412036800E1,2.880883455E0,1.534147530E1
4.082195999E0,4.850926876E0,1.493700027E1,1.987289190E0,1.583018595E1
4.087108759E0,4.133718967E0,1.557247162E1,1.339409828E0,1.616735982E1
4.092021519E0,3.202601433E0,1.604868698E1,1.074497700E0,1.640035228E1
4.096934280E0,2.185759544E0,1.638476181E1,1.213752508E0,1.657441280E1
4.101846988E0,1.256333709E0,1.672358322E1,1.667086840E0,1.685336135E1
4.106759749E0,4.603987336E-1,1.699223900E1,2.445415258E0,1.717347399E1
4.111672509E0,-2.275512815E-1,1.715575027E1,3.382984400E0,1.748759934E1
4.116585269E0,-8.400769234E-1,1.734165192E1,4.447792053E0,1.792265255E1
4.121498030E0,-1.332899809E0,1.764860344E1,5.523813725E0,1.854082909E1
4.126410738E0,-1.533384085E0,1.800073624E1,6.477560997E0,1.919209651E1
4.131323499E0,-1.398749352E0,1.819590759E1,7.179506779E0,1.961103950E1
4.136236259E0,-1.031004429E0,1.826963043E1,7.580197334E0,1.980660894E1
4.141149019E0,-4.711786807E-1,1.818399811E1,7.569048882E0,1.970203790E1
4.146061780E0,1.635300517E-1,1.803327370E1,7.247368336E0,1.943579301E1
4.150974488E0,8.303421140E-1,1.782593918E1,6.768178940E0,1.908564439E1
4.155887249E0,1.520176888E0,1.751565552E1,6.154739857E0,1.862766622E1
4.160800009E0,2.200093508E0,1.713500977E1,5.446957111E0,1.811403635E1
4.165712769E0,2.959151745E0,1.663749695E1,4.737313747E0,1.755007195E1
4.170625530E0,3.699443817E0,1.606726074E1,4.104296207E0,1.699082104E1
4.175538238E0,4.222245216E0,1.542760944E1,3.547612429E0,1.638365166E1
4.180450999E0,4.541104317E0,1.469296455E1,3.026812792E0,1.567374976E1
4.185363759E0,4.656705856E0,1.387349510E1,2.652737617E0,1.487265251E1
4.190276519E0,4.571133137E0,1.306046867E1,2.434089661E0,1.404976486E1
4.195189280E0,4.288055420E0,1.228978920E1,2.406935215E0,1.323705689E1
4.200102040E0,3.933058739E0,1.147284985E1,2.526458025E0,1.238863289E1
4.205014749E0,3.593385220E0,1.058794785E1,2.712650299E0,1.150545647E1
4.209927509E0,3.222141981E0,9.661262512E0,2.990855455E0,1.061449050E1
4.214840269E0,2.820363998E0,8.719020844E0,3.302515268E0,9.740758936E0
4.219753030E0,2.441984892E0,7.780298233E0,3.550701380E0,8.894032330E0
4.224665790E0,2.078722477E0,6.799690247E0,3.726730585E0,8.027788951E0
4.229578499E0,1.674379110E0,5.861132622E0,3.807045221E0,7.186794441E0
4.234491259E0,1.268391848E0,4.921798706E0,3.827513218E0,6.362607784E0
4.239404019E0,8.812146783E-1,4.048911095E0,3.725728035E0,5.572366620E0
4.244316780E0,5.453186035E-1,3.204402924E0,3.656720638E0,4.892563367E0
4.249229540E0,3.079202771E-1,2.386069298E0,3.643777370E0,4.366377803E0
4.254142249E0,1.351804584E-1,1.541405678E0,3.705562830E0,4.015644544E0
4.259055009E0,1.156145409E-1,7.231369019E-1,3.827375412E0,3.896805903E0
4.263967769E0,1.873145252E-1,-8.306407928E-2,3.963531494E0,3.968824546E0
4.268880530E0,2.837094963E-1,-8.771104813E-1,4.087340355E0,4.190007763E0
4.273793290E0,3.624162376E-1,-1.649333000E0,4.160057545E0,4.489735365E0
4.278706051E0,4.262176156E-1,-2.421150684E0,4.173905373E0,4.844080733E0
4.283618811E0,4.203777313E-1,-3.103948116E0,4.104147911E0,5.162871432E0
4.288531519E0,3.928572834E-1,-3.786205292E0,4.000148773E0,5.521854540E0
4.293444280E0,3.438185155E-1,-4.443959713E0,3.844409466E0,5.886125487E0
4.298357040E0,3.497218788E-1,-5.096363068E0,3.643339634E0,6.274483692E0
4.303269801E0,3.363790512E-1,-5.750623226E0,3.398627758E0,6.688309876E0
4.308182561E0,3.446917236E-1,-6.473754883E0,3.081154108E0,7.177870527E0
4.313095269E0,3.819141984E-1,-7.213150024E0,2.666543007E0,7.699730082E0
4.318008030E0,3.977783620E-1,-7.930627823E0,2.178235531E0,8.233941664E0
4.322920790E0,3.441826403E-1,-8.631133080E0,1.579769731E0,8.781263709E0
4.327833551E0,1.992529035E-1,-9.343553543E0,9.448312521E-1,9.393316806E0
4.332746311E0,6.070864201E-2,-1.007045841E1,4.140799046E-1,1.007915077E1
4.337659071E0,-6.707048416E-2,-1.077140045E1,-1.010553613E-1,1.077208329E1
4.342571780E0,-3.019036055E-1,-1.141795921E1,-3.656774759E-1,1.142780199E1
4.347484540E0,-5.562795401E-1,-1.206308937E1,-3.261492848E-1,1.208031231E1
4.352397301E0,-9.372856617E-1,-1.266409683E1,-1.484842747E-1,1.269960238E1
4.357310061E0,-1.357909083E0,-1.322612190E1,6.828426570E-2,1.329582192E1
4.362222821E0,-1.764219165E0,-1.370878696E1,3.303347230E-1,1.382578860E1
4.367135582E0,-1.924827337E0,-1.407643890E1,5.911771655E-1,1.421972514E1
4.372048290E0,-1.940443993E0,-1.436272240E1,6.721479297E-1,1.450878701E1
4.376961051E0,-1.870879054E0,-1.466576958E1,4.968969524E-1,1.479296766E1
4.381873811E0,-1.806687355E0,-1.499750137E1,1.077075005E-1,1.510631549E1
4.386786571E0,-1.689923406E0,-1.531245995E1,-3.867543340E-1,1.541028389E1
4.391699332E0,-1.587051749E0,-1.550071907E1,-9.259003401E-1,1.560923817E1
4.396612092E0,-1.507047057E0,-1.561034012E1,-1.439618349E0,1.574885426E1
4.401524801E0,-1.391745925E0,-1.570607758E1,-1.970353603E0,1.589025245E1
4.406437561E0,-1.190054536E0,-1.583586502E1,-2.469454765E0,1.607137386E1
4.411350321E0,-9.848849773E-1,-1.593044567E1,-2.907446623E0,1.622351206E1
4.416263082E0,-8.786108494E-1,-1.594460869E1,-3.273828268E0,1.630093417E1
4.421175842E0,-8.136529922E-1,-1.587385559E1,-3.557774544E0,1.628800424E1
4.426088551E0,-7.278144360E-1,-1.579013634E1,-3.709671974E0,1.623637230E1
4.431001311E0,-5.443751812E-1,-1.567913532E1,-3.732216358E0,1.612640902E1
4.435914071E0,-3.158189058E-1,-1.554796314E1,-3.603551388E0,1.596322280E1
4.440826832E0,-8.028942347E-2,-1.533669949E1,-3.354047060E0,1.569937671E1
4.445739592E0,1.315049529E-1,-1.510734749E1,-3.032645464E0,1.540928876E1
4.450652353E0,3.031644225E-1,-1.488358498E1,-2.693137646E0,1.512831784E1
4.455565113E0,4.277122021E-1,-1.460301399E1,-2.351223469E0,1.479727026E1
4.460477821E0,4.933863580E-1,-1.426789665E1,-2.075373173E0,1.442648532E1
4.465390582E0,5.003420711E-1,-1.388052750E1,-1.860195756E0,1.401355465E1
4.470303342E0,4.771164060E-1,-1.345998287E1,-1.743628740E0,1.358083282E1
4.475216103E0,4.522037506E-1,-1.303967094E1,-1.670616150E0,1.315402847E1
4.480128863E0,4.803906977E-1,-1.260033512E1,-1.564652443E0,1.270619367E1
4.485041624E0,5.592657924E-1,-1.213945580E1,-1.459407210E0,1.223965010E1
4.489954332E0,6.911575794E-1,-1.166167259E1,-1.328629136E0,1.175744708E1
4.494867092E0,7.851215005E-1,-1.117877102E1,-1.057334304E0,1.125607805E1
4.499779853E0,9.203176498E-1,-1.061882019E1,-7.170151472E-1,1.068271677E1
4.504692613E0,1.070702910E0,-1.007736874E1,-4.005038440E-1,1.014200023E1
4.509605374E0,1.191224575E0,-9.515958786E0,-9.080725908E-2,9.590658662E0
4.514518134E0,1.284264565E0,-8.979884148E0,1.786392331E-1,9.073013102E0
4.519430842E0,1.313969135E0,-8.280041695E0,4.148648083E-1,8.393909587E0
4.524343603E0,1.354655623E0,-7.571874619E0,6.417739987E-1,7.718824455E0
4.529256363E0,1.413891077E0,-6.740449429E0,1.017415762E0,6.961887769E0
4.534169124E0,1.530455232E0,-5.900547981E0,1.419976592E0,6.259000976E0
4.539081884E0,1.614036322E0,-5.059239388E0,1.835465908E0,5.618714402E0
4.543994644E0,1.765775681E0,-4.178196907E0,2.254718304E0,5.065476066E0
4.548907405E0,1.936042190E0,-3.250260830E0,2.623163223E0,4.603633361E0
4.553820113E0,2.101518393E0,-2.287454128E0,2.929378510E0,4.269670291E0
4.558732874E0,2.246191025E0,-1.294643879E0,3.195317030E0,4.114793776E0
4.563645634E0,2.310871363E0,-2.671861649E-1,3.445505619E0,4.157285638E0
4.568558394E0,2.284109116E0,6.919221878E-1,3.675777674E0,4.382607931E0
4.573471155E0,2.154057026E0,1.678183556E0,3.851286888E0,4.721088054E0
4.578383915E0,1.984921813E0,2.698472977E0,3.982811689E0,5.204273241E0
4.583296624E0,1.753817797E0,3.903115273E0,4.083648205E0,5.914927587E0
4.588209384E0,1.413708448E0,5.327425957E0,4.241316795E0,6.954768656E0
4.593122144E0,1.235765219E0,6.930078506E0,4.404623985E0,8.303843462E0
4.598034905E0,1.242662311E0,8.550104141E0,4.637343884E0,9.805786493E0
4.602947665E0,1.565997839E0,9.966721535E0,4.993702888E0,1.125721795E1
4.607860426E0,2.094459534E0,1.132291031E1,5.213777542E0,1.264035343E1
4.612773134E0,2.726651192E0,1.258477402E1,5.204319477E0,1.388870422E1
4.617685894E0,3.150803089E0,1.373789024E1,4.969240189E0,1.494491674E1
4.622598655E0,3.298685074E0,1.484465218E1,4.526387215E0,1.586610231E1
4.627511415E0,3.288043499E0,1.587438011E1,4.007988453E0,1.669943548E1
4.632424176E0,3.193199635E0,1.676782608E1,3.522289038E0,1.742879902E1
4.637336936E0,3.150433540E0,1.750156403E1,3.156459808E0,1.806081984E1
4.642249696E0,3.236395836E0,1.814041138E1,3.019827604E0,1.867265760E1
4.647162405E0,3.456379414E0,1.872726250E1,3.193670511E0,1.930949121E1
4.652075165E0,3.705771446E0,1.926651764E1,3.534867048E0,1.993556443E1
4.656987926E0,3.803273678E0,1.959752655E1,3.840939283E0,2.032930771E1
4.661900686E0,3.698576450E0,1.973926544E1,4.196655273E0,2.051657826E1
4.666813446E0,3.525329590E0,1.977284622E1,4.581584454E0,2.060059010E1
4.671726207E0,3.366693020E0,1.972667313E1,4.980134487E0,2.062226937E1
4.676638967E0,3.145567417E0,1.955743408E1,5.347926140E0,2.051799542E1
4.681551676E0,2.887678623E0,1.917653847E1,5.659543037E0,2.020170148E1
4.686464436E0,2.630500317E0,1.868454742E1,5.939617157E0,1.978157972E1
4.691377196E0,2.392674208E0,1.813884735E1,6.174394131E0,1.930973371E1
4.696289957E0,2.204856873E0,1.756578064E1,6.361907959E0,1.881201521E1
4.701202717E0,2.133852005E0,1.688654327E1,6.514237404E0,1.822481707E1
4.706115478E0,2.033851624E0,1.613493538E1,6.576211452E0,1.754192832E1
4.711028186E0,2.041613817E0,1.533042622E1,6.533189297E0,1.678906541E1
4.715940946E0,2.032999992E0,1.449022007E1,6.415711403E0,1.597688704E1
4.720853707E0,2.000924587E0,1.355986500E1,6.218253136E0,1.505125609E1
4.725766467E0,1.943167329E0,1.265718174E1,5.939959526E0,1.411606418E1
4.730679228E0,1.866839409E0,1.176592159E1,5.589617729E0,1.315924871E1
4.735591988E0,1.810051441E0,1.082443333E1,5.259655952E0,1.216998865E1
4.740504749E0,1.787045240E0,9.914499283E0,4.961297989E0,1.122966181E1
4.745417457E0,1.833923340E0,9.014826775E0,4.643915176E0,1.030516010E1
4.750330217E0,1.864617109E0,8.113742828E0,4.378861427E0,9.406595933E0
4.755242978E0,1.895968199E0,7.249750137E0,4.106005669E0,8.544755995E0
4.760155738E0,1.829509735E0,6.427887917E0,3.815413952E0,7.695598259E0
4.765068499E0,1.710165739E0,5.636478424E0,3.489865065E0,6.846438056E0
4.769981259E0,1.541982889E0,4.871066093E0,3.162087917E0,6.008643450E0
4.774893967E0,1.367390871E0,4.146200180E0,2.867472172E0,5.223325606E0
4.779806728E0,1.238457799E0,3.454779625E0,2.670323133E0,4.538711889E0
4.784719488E0,1.133305311E0,2.811243057E0,2.555789948E0,3.964786339E0
4.789632249E0,1.027795553E0,2.148688316E0,2.446788311E0,3.414673955E0
4.794545009E0,1.003284216E0,1.500723839E0,2.354667664E0,2.967020570E0
4.799457769E0,1.040797710E0,8.697633743E-1,2.345955849E0,2.709844469E0
4.804370530E0,1.231893420E0,2.438249588E-1,2.403588295E0,2.711871808E0
4.809283290E0,1.376263857E0,-3.746976852E-1,2.467459917E0,2.850062982E0
4.814195999E0,1.546524763E0,-1.033632278E0,2.611552715E0,3.206297259E0
4.819108759E0,1.700144172E0,-1.744884491E0,2.771223545E0,3.689822764E0
4.824021519E0,1.784668922E0,-2.352932930E0,2.888928413E0,4.131252100E0
4.828934280E0,1.769171238E0,-2.986995220E0,2.969352722E0,4.568277893E0
4.833847040E0,1.634240150E0,-3.513103962E0,2.981194258E0,4.888778939E0
4.838759801E0,1.491730213E0,-4.055716515E0,2.924183607E0,5.217752892E0
4.843672561E0,1.288369179E0,-4.564621925E0,2.843490601E0,5.530018739E0
4.848585269E0,1.027970076E0,-5.092537403E0,2.779433727E0,5.892021005E0
4.853498030E0,7.216678262E-1,-5.629985332E0,2.705419779E0,6.287832335E0
4.858410790E0,4.931100905E-1,-6.157976151E0,2.666891336E0,6.728754508E0
4.863323551E0,2.961815894E-1,-6.662344933E0,2.644969463E0,7.174289303E0
4.868236311E0,1.541717649E-1,-7.205466747E0,2.647229910E0,7.677912879E0
4.873149071E0,2.602297068E-2,-7.734848022E0,2.628743887E0,8.169384649E0
4.878061780E0,-2.011398077E-1,-8.245882034E0,2.585171938E0,8.643965623E0
4.882974540E0,-5.233563185E-1,-8.693362236E0,2.535980463E0,9.070812847E0
4.887887301E0,-9.347804785E-1,-9.094379425E0,2.450465202E0,9.465005620E0
4.892800061E0,-1.290838957E0,-9.516221046E0,2.374511719E0,9.892574696E0
4.897712821E0,-1.491963506E0,-1.005232048E1,2.315673113E0,1.042292877E1
4.902625582E0,-1.593509555E0,-1.058308029E1,2.253224373E0,1.093699599E1
4.907538342E0,-1.538006544E0,-1.110851765E1,2.123292446E0,1.141371978E1
4.912451051E0,-1.420567632E0,-1.154485512E1,1.842666864E0,1.177697386E1
4.917363811E0,-1.321998596E0,-1.190885925E1,1.516531944E0,1.207760233E1
4.922276571E0,-1.172116041E0,-1.215988636E1,1.120184422E0,1.226749793E1
4.927189332E0,-1.068361878E0,-1.239369488E1,5.927703381E-1,1.245377238E1
4.932102092E0,-9.456399679E-1,-1.256972504E1,-7.191097736E-2,1.260545095E1
4.937014853E0,-8.801513910E-1,-1.278386974E1,-7.752691507E-1,1.283756341E1
4.941927613E0,-7.878434658E-1,-1.297176647E1,-1.392483711E0,1.307005867E1
4.946840374E0,-6.180391312E-1,-1.318392181E1,-1.980465055E0,1.334616082E1
4.951753082E0,-4.107308388E-1,-1.342768383E1,-2.428114891E0,1.365163488E1
4.956665842E0,-1.985024214E-1,-1.365293026E1,-2.743486881E0,1.392726205E1
4.961578603E0,-1.650166512E-2,-1.386457634E1,-2.974893332E0,1.418015302E1
4.966491363E0,8.092010021E-2,-1.401968956E1,-3.036529541E0,1.434499059E1
4.971404124E0,9.174799919E-2,-1.419256020E1,-3.060161591E0,1.451901414E1
4.976316884E0,6.156408787E-2,-1.429714966E1,-3.083898306E0,1.462609679E1
4.981229644E0,1.892757416E-2,-1.439338493E1,-3.133875608E0,1.473061657E1
4.986142405E0,-3.631508350E-2,-1.452196693E1,-3.186060429E0,1.486740810E1
4.991055113E0,-9.972620010E-2,-1.468288040E1,-3.202036381E0,1.502830527E1
4.995967874E0,-1.479417086E-1,-1.479719353E1,-3.203226566E0,1.514065664E1
5.000880634E0,-2.507618666E-1,-1.488642120E1,-3.203614712E0,1.522929956E1
5.005793394E0,-2.699687481E-1,-1.495054436E1,-3.116988182E0,1.527439933E1
5.010706155E0,-3.113277555E-1,-1.497752380E1,-3.031566143E0,1.528442140E1
5.015618915E0,-4.109965563E-1,-1.495530510E1,-2.930374146E0,1.524523406E1
5.020531676E0,-5.068774223E-1,-1.493639755E1,-2.820595503E0,1.520883479E1
5.025444384E0,-5.388503075E-1,-1.492531109E1,-2.651697636E0,1.516861138E1
5.030357144E0,-4.803391695E-1,-1.481178474E1,-2.423583269E0,1.501643929E1
5.035269905E0,-4.409587979E-1,-1.463391781E1,-2.200662374E0,1.480502989E1
5.040182665E0,-3.078466654E-1,-1.441541100E1,-1.963558793E0,1.455178363E1
5.045095426E0,-1.714760661E-1,-1.421580887E1,-1.635619998E0,1.431062118E1
5.050008186E0,2.821481228E-2,-1.396785355E1,-1.374431252E0,1.403534075E1
5.054920946E0,9.499722719E-2,-1.365223694E1,-1.117751360E0,1.369824682E1
5.059833655E0,8.354514837E-2,-1.332380867E1,-9.635587931E-1,1.335886608E1
5.064746415E0,2.691447735E-4,-1.289625835E1,-6.509212255E-1,1.291267509E1
5.069659176E0,-3.130692244E-2,-1.229053307E1,-2.538307607E-1,1.229319378E1
5.074571936E0,-2.638253570E-2,-1.150654984E1,1.090082005E-1,1.150709642E1
5.079484696E0,-1.191191375E-2,-1.058488846E1,4.746786058E-1,1.059553327E1
5.084397457E0,7.143864036E-2,-9.621114731E0,9.426230788E-1,9.667444875E0
5.089310217E0,2.401595712E-1,-8.658127785E0,1.409027338E0,8.775318307E0
5.094222978E0,4.442540705E-1,-7.638439178E0,1.909173608E0,7.885940567E0
5.099135686E0,6.768629551E-1,-6.406696796E0,2.370570660E0,6.864656769E0
5.104048446E0,9.237609506E-1,-4.956050396E0,2.713108301E0,5.725096198E0
5.108961207E0,1.307185888E0,-3.370568752E0,3.038310766E0,4.722372388E0
5.113873967E0,1.762849927E0,-1.588395596E0,3.339789152E0,4.096929584E0
5.118786728E0,2.236433744E0,3.804817200E-1,3.606099606E0,4.260323532E0
5.123699488E0,2.825224400E0,2.399343491E0,3.724724770E0,5.254742306E0
5.128612249E0,3.629882097E0,4.431981087E0,3.690487623E0,6.814557894E0
5.133525009E0,4.433332920E0,6.353661537E0,3.600828171E0,8.543384530E0
5.138437717E0,5.124011040E0,8.085246086E0,3.394575596E0,1.015627082E1
5.143350478E0,5.834084511E0,9.629075050E0,2.983825922E0,1.164726773E1
5.148263238E0,6.220931530E0,1.102123070E1,2.399698019E0,1.288122920E1
5.153175999E0,6.115025043E0,1.254439068E1,1.881299973E0,1.408171007E1
5.158088759E0,5.867358208E0,1.435419273E1,1.589684248E0,1.558832375E1
5.163001519E0,5.812393188E0,1.596735954E1,1.632166862E0,1.707057275E1
5.167914280E0,6.026854515E0,1.725465584E1,2.107827425E0,1.839807218E1
5.172827040E0,6.269504547E0,1.824688530E1,2.898970127E0,1.951049815E1
5.177739749E0,6.387445450E0,1.907041931E1,3.797243595E0,2.046703230E1
5.182652509E0,6.284776211E0,1.985386086E1,4.659063339E0,2.133965965E1
5.187565269E0,5.943933487E0,2.056549454E1,5.496380329E0,2.210158609E1
5.192478030E0,5.430719376E0,2.106613731E1,6.291995049E0,2.264650207E1
5.197390790E0,4.848875999E0,2.137457275E1,6.985671043E0,2.300399006E1
5.202303551E0,4.278253555E0,2.149276924E1,7.588872433E0,2.319123903E1
5.207216311E0,3.705255508E0,2.141312027E1,8.115359306E0,2.319719153E1
5.212129071E0,3.085267782E0,2.119032097E1,8.492359161E0,2.303624848E1
5.217041780E0,2.447751522E0,2.094125748E1,8.737834930E0,2.282274110E1
5.221954540E0,1.824510217E0,2.059156609E1,8.838203430E0,2.248233243E1
5.226867301E0,1.314678550E0,2.015078735E1,8.856103897E0,2.205024233E1
5.231780061E0,8.956420422E-1,1.960699844E1,8.791799545E0,2.150656416E1
5.236692821E0,5.787338614E-1,1.897709656E1,8.614255905E0,2.084875371E1
5.241605582E0,4.282702208E-1,1.827573586E1,8.363883018E0,2.010324540E1
5.246518342E0,4.374240041E-1,1.750334167E1,8.061602592E0,1.927557382E1
5.251431103E0,4.774871469E-1,1.668206406E1,7.706433296E0,1.838228412E1
5.256343811E0,5.322213769E-1,1.582943726E1,7.285030365E0,1.743347386E1
5.261256571E0,6.767912507E-1,1.492951393E1,6.853271484E0,1.644128227E1
5.266169332E0,9.122172594E-1,1.396874714E1,6.368912697E0,1.537924205E1
5.271082092E0,1.134190559E0,1.297665787E1,5.870990753E0,1.428805690E1
5.275994853E0,1.309868574E0,1.201604271E1,5.360664845E0,1.322262325E1
5.280907613E0,1.415788174E0,1.101572418E1,4.903578758E0,1.214066390E1
5.285820374E0,1.497584820E0,1.000488853E1,4.477217197E0,1.106282191E1
5.290733134E0,1.555302382E0,9.029278755E0,4.145574570E0,1.005647199E1
5.295645842E0,1.689522266E0,8.108176231E0,3.991953135E0,9.194166472E0
5.300558603E0,1.800049305E0,7.205750465E0,3.932461500E0,8.404003256E0
5.305471363E0,1.899031401E0,6.377094269E0,3.813972473E0,7.669422247E0
5.310384124E0,1.938321829E0,5.541016579E0,3.700944901E0,6.939520833E0
5.315296884E0,1.953637123E0,4.771839142E0,3.576421499E0,6.275184264E0
5.320209644E0,1.961648464E0,4.028988838E0,3.428302288E0,5.642169116E0
5.325122405E0,2.012589931E0,3.350826263E0,3.318708897E0,5.127609933E0
5.330035165E0,2.077829599E0,2.658517838E0,3.223458767E0,4.666452545E0
5.334947926E0,2.124086618E0,1.945096016E0,3.082242012E0,4.218454491E0
5.339860634E0,2.153969765E0,1.220365524E0,2.865603685E0,3.786893482E0
5.344773394E0,2.170092106E0,4.558401108E-1,2.639624119E0,3.447420114E0
5.349686155E0,2.234854937E0,-3.076381683E-1,2.393814087E0,3.289310522E0
5.354598915E0,2.257601261E0,-1.089104652E0,2.199059010E0,3.334482407E0
5.359511676E0,2.226400614E0,-1.788066864E0,2.023545980E0,3.499825873E0
5.364424436E0,2.057406902E0,-2.469184875E0,1.864286661E0,3.715556737E0
5.369337196E0,1.884194255E0,-3.096646309E0,1.732676506E0,4.017657804E0
5.374249957E0,1.699060321E0,-3.768633366E0,1.704984903E0,4.471730866E0
5.379162665E0,1.474811792E0,-4.396743774E0,1.713991046E0,4.944106688E0
5.384075426E0,1.275271535E0,-5.069649220E0,1.728619337E0,5.505977253E0
5.388988186E0,1.090254307E0,-5.742015362E0,1.775350809E0,6.108294800E0
5.393900946E0,8.976130486E-1,-6.397269726E0,1.888092995E0,6.730205367E0
5.398813707E0,6.654708385E-1,-6.968651772E0,1.997904658E0,7.279875134E0
5.403726467E0,4.266187251E-1,-7.501871109E0,2.074046373E0,7.794981849E0
5.408639228E0,2.187713385E-1,-8.018661499E0,2.107110023E0,8.293775123E0
5.413551988E0,2.702057362E-2,-8.545524597E0,2.085175037E0,8.796287608E0
5.418464696E0,-2.067620754E-1,-9.075488091E0,2.039332390E0,9.304091102E0
5.423377457E0,-3.895888329E-1,-9.546561241E0,1.976769209E0,9.756855410E0
5.428290217E0,-5.265274048E-1,-9.999631882E0,1.940732002E0,1.019981910E1
5.433202978E0,-6.274166107E-1,-1.043248367E1,1.895512342E0,1.062183290E1
5.438115738E0,-7.715282440E-1,-1.080228043E1,1.774159431E0,1.097415873E1
5.443028499E0,-8.730773926E-1,-1.114754105E1,1.574312449E0,1.129196153E1
5.447941259E0,-9.776635170E-1,-1.149478436E1,1.381807923E0,1.161874720E1
5.452854019E0,-9.967561960E-1,-1.181070614E1,1.157932878E0,1.190911882E1
5.457766728E0,-1.006772637E0,-1.211460590E1,9.000795484E-1,1.218964358E1
5.462679488E0,-1.021878123E0,-1.240186119E1,6.222867966E-1,1.245943966E1
5.467592249E0,-1.087577224E0,-1.264159489E1,4.055141211E-1,1.269477007E1
5.472505009E0,-1.184795260E0,-1.280293751E1,2.065331936E-1,1.285930032E1
5.477417769E0,-1.272853494E0,-1.291481972E1,1.557826996E-2,1.297740217E1
5.482330530E0,-1.263434649E0,-1.305634308E1,-1.865255833E-1,1.311865670E1
5.487243290E0,-1.244946718E0,-1.320841980E1,-3.711699247E-1,1.327215179E1
5.492156051E0,-1.183585286E0,-1.340453339E1,-5.216336250E-1,1.346679216E1
5.497068811E0,-1.088604927E0,-1.361358261E1,-6.381168365E-1,1.367193788E1
5.501981519E0,-9.116368294E-1,-1.373271179E1,-7.709572315E-1,1.378451413E1
5.506894280E0,-7.119090557E-1,-1.384095287E1,-9.444062710E-1,1.389138921E1
5.511807040E0,-4.673008919E-1,-1.390011597E1,-1.118326902E0,1.395285810E1
5.516719801E0,-1.533161402E-1,-1.394139862E1,-1.384141922E0,1.401077979E1
5.521632561E0,1.155923605E-1,-1.399846458E1,-1.685290098E0,1.410002039E1
5.526545321E0,3.061919212E-1,-1.405233765E1,-2.020198345E0,1.420011085E1
5.531458082E0,3.566386700E-1,-1.406017876E1,-2.308565140E0,1.425290464E1
5.536370842E0,3.460643291E-1,-1.403174210E1,-2.570280552E0,1.426940394E1
5.541283603E0,3.032214642E-1,-1.396956253E1,-2.760576248E0,1.424294217E1
5.546196311E0,2.472437024E-1,-1.393582439E1,-2.819938660E0,1.422042141E1
5.551109071E0,2.429204583E-1,-1.392553902E1,-2.791339874E0,1.420461987E1
5.556021832E0,2.499235868E-1,-1.393121529E1,-2.600207567E0,1.417400087E1
5.560934592E0,2.467849255E-1,-1.384491158E1,-2.260209084E0,1.403036081E1
5.565847353E0,2.404692173E-1,-1.364966202E1,-1.925756454E0,1.378693717E1
5.570760113E0,2.665866613E-1,-1.344811153E1,-1.658022761E0,1.355255739E1
5.575672874E0,2.865481377E-1,-1.326160049E1,-1.449374437E0,1.334364432E1
5.580585634E0,3.143420815E-1,-1.306846142E1,-1.318921924E0,1.313860913E1
5.585498394E0,2.920686007E-1,-1.292116737E1,-1.259373903E0,1.298568031E1
5.590411103E0,3.220696449E-1,-1.272626877E1,-1.134499073E0,1.278079551E1
5.595323863E0,3.540080786E-1,-1.245968056E1,-9.491486549E-1,1.250079375E1
5.600236624E0,4.215829372E-1,-1.208534050E1,-7.152599692E-1,1.211382615E1
5.605149384E0,5.084217191E-1,-1.174412346E1,-3.679073453E-1,1.176087940E1
5.610062144E0,6.412509680E-1,-1.135674667E1,-2.865159512E-2,1.137487225E1
5.614974905E0,8.350967765E-1,-1.097078514E1,3.027315438E-1,1.100668704E1
5.619887665E0,9.563195705E-1,-1.055730152E1,5.710909367E-1,1.061589880E1
5.624800426E0,9.833208323E-1,-1.002046680E1,6.973778605E-1,1.009272068E1
5.629713134E0,9.776967764E-1,-9.417598724E0,8.013037443E-1,9.502060009E0
5.634625894E0,9.098448753E-1,-8.686368942E0,9.954224825E-1,8.790431674E0
5.639538655E0,8.054832220E-1,-7.907957077E0,1.349514008E0,8.062615978E0
5.644451415E0,8.173224926E-1,-7.041502476E0,1.773607850E0,7.307288004E0
5.649364176E0,9.430673718E-1,-6.051025391E0,2.304892302E0,6.543455728E0
5.654276936E0,1.149734139E0,-4.852860451E0,2.863418818E0,5.750766077E0
5.659189696E0,1.409047246E0,-3.483120441E0,3.357389927E0,5.038810303E0
5.664102457E0,1.618185401E0,-1.925395489E0,3.766958952E0,4.529420661E0
5.669015217E0,1.786156893E0,-1.275386810E-1,4.141678333E0,4.512219185E0
5.673927926E0,1.874083161E0,1.697063446E0,4.442360401E0,5.111435999E0
5.678840686E0,2.032614231E0,3.466769218E0,4.593655586E0,6.103415525E0
5.683753446E0,2.372442722E0,5.226724625E0,4.603758335E0,7.358106114E0
5.688666207E0,2.801996708E0,6.914379120E0,4.566435814E0,8.747122967E0
5.693578967E0,3.167644501E0,8.830794334E0,4.378409386E0,1.035313329E1
5.698491728E0,3.456903219E0,1.086559963E1,3.999917984E0,1.208349201E1
5.703404488E0,3.786948442E0,1.282264614E1,3.445409298E0,1.380695759E1
5.708317249E0,4.069276810E0,1.454442692E1,2.831729412E0,1.536613353E1
5.713230009E0,4.258288383E0,1.617980194E1,2.189497709E0,1.687343803E1
5.718142717E0,4.310052872E0,1.769816971E1,1.645460606E0,1.828959560E1
5.723055478E0,4.149065018E0,1.904727936E1,1.518855572E0,1.955301802E1
5.727968238E0,3.904427528E0,2.031091118E1,1.932022333E0,2.077282787E1
5.732880999E0,3.651605129E0,2.146958160E1,2.786292791E0,2.195542261E1
5.737793759E0,3.343397617E0,2.240774918E1,3.989227533E0,2.300433583E1
5.742706519E0,3.039914608E0,2.320571136E1,5.377438545E0,2.401380782E1
5.747619280E0,2.664466619E0,2.393622589E1,6.831027985E0,2.503408148E1
5.752532040E0,2.360379219E0,2.453314209E1,8.339912415E0,2.601923500E1
5.757444801E0,2.180390120E0,2.500448608E1,9.728551865E0,2.691882514E1
5.762357509E0,2.084459782E0,2.526508713E1,1.099561024E1,2.763282549E1
5.767270269E0,2.100122213E0,2.538793182E1,1.206491947E1,2.818722898E1
5.772183030E0,2.282059193E0,2.534836578E1,1.283533764E1,2.850426870E1
5.777095790E0,2.535489082E0,2.506016922E1,1.315435410E1,2.841615417E1
5.782008551E0,2.907825708E0,2.447374725E1,1.304998589E1,2.788766549E1
5.786921311E0,3.310594797E0,2.364292145E1,1.246550941E1,2.693207562E1
5.791834071E0,3.607348204E0,2.261952400E1,1.162077999E1,2.568459372E1
5.796746832E0,3.773609638E0,2.147240448E1,1.060800934E1,2.424529121E1
5.801659592E0,3.827563763E0,2.027986908E1,9.495417595E0,2.271753265E1
5.806572301E0,3.868534088E0,1.895971870E1,8.384960175E0,2.108895556E1
5.811485061E0,3.959805965E0,1.742713737E1,7.388698578E0,1.933851202E1
5.816397821E0,4.073131561E0,1.583625317E1,6.643270016E0,1.764965585E1
5.821310582E0,3.993297338E0,1.424278831E1,5.970008850E0,1.595131494E1
5.826223342E0,3.827430725E0,1.268071365E1,5.449408531E0,1.432291095E1
5.831136103E0,3.522057295E0,1.111925793E1,5.011691093E0,1.269487424E1
5.836048863E0,3.140552759E0,9.613646507E0,4.697659492E0,1.115137998E1
5.840961624E0,2.734038830E0,8.156834602E0,4.433467388E0,9.678044851E0
5.845874384E0,2.324635744E0,6.748906136E0,4.308147430E0,8.337373666E0
5.850787092E0,1.987339973E0,5.437729836E0,4.250399590E0,7.182222679E0
5.855699853E0,1.718144655E0,4.201778412E0,4.227171898E0,6.202898124E0
5.860612613E0,1.485101581E0,3.038635254E0,4.157567501E0,5.359496099E0
5.865525374E0,1.373493910E0,1.924423218E0,4.065715313E0,4.703183097E0
5.870438134E0,1.255869389E0,8.759603500E-1,3.973102093E0,4.257940194E0
5.875350894E0,1.174950957E0,-8.038139343E-2,3.834044456E0,4.010843778E0
5.880263655E0,1.137831926E0,-1.025847435E0,3.633695602E0,3.943446232E0
5.885176415E0,1.132587671E0,-1.878986359E0,3.426360130E0,4.068573253E0
5.890089124E0,1.161756039E0,-2.685172081E0,3.203650951E0,4.338571841E0
5.895001884E0,1.216041803E0,-3.446753502E0,2.976487160E0,4.713633756E0
5.899914644E0,1.343885422E0,-4.192417622E0,2.822703600E0,5.229727445E0
5.904827405E0,1.519730806E0,-4.852834225E0,2.770180464E0,5.790810093E0
5.909740165E0,1.746621013E0,-5.480735302E0,2.722695112E0,6.364134905E0
5.914652926E0,1.934145093E0,-6.095325470E0,2.691821575E0,6.938286043E0
5.919565686E0,1.986855507E0,-6.651247501E0,2.696297407E0,7.446926066E0
5.924478446E0,1.973760247E0,-7.148689270E0,2.666889906E0,7.881103321E0
5.929391155E0,1.841668367E0,-7.638064861E0,2.615767717E0,8.280943059E0
5.934303967E0,1.650234103E0,-8.224690437E0,2.626850605E0,8.790287224E0
5.939216676E0,1.403799772E0,-8.863115311E0,2.746007442E0,9.384349934E0
5.944129436E0,1.114116430E0,-9.512697220E0,2.796567917E0,9.977647816E0
5.949042196E0,7.948575020E-1,-1.019980717E1,2.803254128E0,1.060783194E1
5.953954957E0,4.668150544E-1,-1.096754932E1,2.828586102E0,1.133604666E1
5.958867717E0,2.367116213E-1,-1.181361008E1,2.776735067E0,1.213786114E1
5.963780478E0,2.066930532E-1,-1.279788780E1,2.666319132E0,1.307432262E1
5.968693238E0,3.742603064E-1,-1.395150185E1,2.467722416E0,1.417300704E1
5.973605999E0,8.475855589E-1,-1.516682625E1,2.251525402E0,1.535644446E1
5.978518707E0,1.500906587E0,-1.641286278E1,1.860872269E0,1.658606737E1
5.983431467E0,2.220669270E0,-1.769451141E1,1.342447042E0,1.788377114E1
5.988344228E0,2.845055580E0,-1.891870499E1,6.044723988E-1,1.914098029E1
5.993256988E0,3.307353497E0,-2.013853073E1,-2.297077179E-1,2.040960002E1
5.998169749E0,3.665455818E0,-2.160080719E1,-1.066201448E0,2.193552423E1
6.003082509E0,3.900933266E0,-2.330114555E1,-2.110964537E0,2.371954544E1
6.007995269E0,3.877454758E0,-2.497476959E1,-3.275801182E0,2.548538100E1
6.012908030E0,3.354973316E0,-2.632412338E1,-4.432394028E0,2.690467310E1
6.017820790E0,2.439460754E0,-2.723138618E1,-5.363111496E0,2.786148466E1
6.022733551E0,1.317721367E0,-2.762406921E1,-5.954457283E0,2.828924091E1
6.027646259E0,3.472428322E-1,-2.797653961E1,-6.110300064E0,2.863814088E1
6.032559019E0,-3.242819309E-1,-2.840813828E1,-5.712366581E0,2.897858884E1
6.037471780E0,-7.788670063E-1,-2.889433289E1,-5.117820263E0,2.935440667E1
6.042384540E0,-1.185173988E0,-2.939154816E1,-4.546827793E0,2.976476748E1
6.047297301E0,-1.765876532E0,-2.971088028E1,-3.966001987E0,3.002638671E1
6.052210061E0,-2.560369015E0,-2.976449966E1,-3.430812359E0,3.007077324E1
6.057122821E0,-3.384078264E0,-2.947458267E1,-2.839193106E0,2.980375860E1
6.062035582E0,-4.004765034E0,-2.880392456E1,-2.234672070E0,2.916672714E1
6.066948342E0,-4.274859428E0,-2.796343613E1,-1.650995374E0,2.833644242E1
6.071861103E0,-4.030066490E0,-2.699792480E1,-1.002314687E0,2.731545377E1
6.076773811E0,-3.328804255E0,-2.572431183E1,-3.108263016E-2,2.593881499E1
6.081686571E0,-2.254442692E0,-2.389727592E1,1.158443213E0,2.403131913E1
6.086599332E0,-9.018836021E-1,-2.167355156E1,2.026417255E0,2.178675281E1
6.091512092E0,3.753538132E-1,-1.944912720E1,2.451081038E0,1.960656108E1
6.096424853E0,1.551612020E0,-1.739971542E1,2.551350355E0,1.765409259E1
6.101337613E0,2.612923861E0,-1.535429955E1,2.473620653E0,1.577024682E1
6.106250374E0,3.660013676E0,-1.317080975E1,2.479031563E0,1.389285885E1
6.111163134E0,4.666602612E0,-1.072175217E1,2.659170628E0,1.199184464E1
6.116075842E0,5.663356304E0,-7.951665401E0,3.305469990E0,1.030673174E1
6.120988603E0,6.642362595E0,-4.728816509E0,4.317749023E0,9.226355892E0
6.125901363E0,7.842862129E0,-1.337815285E0,5.292879581E0,9.555878315E0
6.130814124E0,9.152915001E0,1.941634178E0,6.146046638E0,1.119462753E1
6.135726884E0,1.033189011E1,5.011617661E0,6.883172512E0,1.338814134E1
6.140639644E0,1.129971695E1,7.879343987E0,7.411362648E0,1.564276066E1
6.145552405E0,1.182531071E1,1.070002842E1,7.671421528E0,1.769687232E1
6.150465165E0,1.197857571E1,1.347545910E1,7.755193710E0,1.962695349E1
6.155377926E0,1.142854786E1,1.620019531E1,7.639524460E0,2.124665546E1
6.160290634E0,1.021882343E1,1.901713562E1,7.437431812E0,2.283399202E1
6.165203394E0,8.975302696E0,2.189667511E1,7.334732056E0,2.477536546E1
6.170116155E0,8.081023216E0,2.452203560E1,7.628312588E0,2.692256152E1
6.175028915E0,7.412160873E0,2.662674713E1,8.175407410E0,2.882292626E1
6.179941676E0,6.696450710E0,2.852565002E1,8.632144928E0,3.054617959E1
6.184854436E0,5.714591026E0,3.022735977E1,8.936021805E0,3.203439269E1
6.189767196E0,4.649687290E0,3.170731354E1,9.207551956E0,3.334295033E1
6.194679957E0,3.687422276E0,3.282639694E1,9.411154747E0,3.434733254E1
6.199592717E0,2.745935440E0,3.350072479E1,9.494541168E0,3.492828417E1
6.204505426E0,1.795149922E0,3.384249115E1,9.633249283E0,3.523260226E1
6.209418186E0,8.713057041E-1,3.397774887E1,9.951063156E0,3.541567802E1
6.214330946E0,8.209598064E-2,3.392234421E1,1.030160999E1,3.545215571E1
6.219243707E0,-5.584613085E-1,3.355606842E1,1.052380943E1,3.517203679E1
6.224156467E0,-9.620769024E-1,3.284044647E1,1.080531406E1,3.458576772E1
6.229069228E0,-1.087543845E0,3.195012665E1,1.112990379E1,3.385067360E1
6.233981988E0,-1.031003356E0,3.085649681E1,1.131861782E1,3.288308794E1
6.238894749E0,-8.280302882E-1,2.953125000E1,1.154632759E1,3.171904856E1
6.243807509E0,-5.428631902E-1,2.805163574E1,1.163348198E1,3.037312745E1
6.248720217E0,-2.900427282E-1,2.641626930E1,1.153409767E1,2.882600940E1
6.253632978E0,3.153336793E-2,2.466938782E1,1.123074818E1,2.710552332E1
6.258545738E0,4.897248447E-1,2.276927376E1,1.077985096E1,2.519692133E1
6.263458499E0,1.089027882E0,2.088491821E1,1.015099239E1,2.324668658E1
6.268371259E0,1.760193467E0,1.895098877E1,9.348781586E0,2.120466867E1
6.273284019E0,2.290165424E0,1.699795151E1,8.408126831E0,1.910161799E1
6.278196780E0,2.661780834E0,1.503697109E1,7.344488621E0,1.694511994E1
6.283109540E0,2.912129402E0,1.316737747E1,6.345556259E0,1.490390591E1
6.288022301E0,3.054064035E0,1.135648441E1,5.420016289E0,1.294888497E1
6.292935009E0,3.112125158E0,9.535460472E0,4.589070797E0,1.103040798E1
6.297847769E0,3.086208344E0,7.800247192E0,3.979825020E0,9.284801850E0
6.302760530E0,2.944483519E0,6.189036369E0,3.629211426E0,7.755342026E0
6.307673290E0,2.752877235E0,4.629813194E0,3.457607269E0,6.400668037E0
6.312586051E0,2.519745827E0,3.088809967E0,3.591760159E0,5.365687941E0
6.317498811E0,2.282436848E0,1.601550102E0,4.003874779E0,4.879087408E0
6.322411571E0,1.994324565E0,1.939706802E-1,4.432253361E0,4.864136609E0
6.327324332E0,1.599111080E0,-1.107949257E0,4.868886948E0,5.243163922E0
6.332237092E0,1.267598867E0,-2.390565872E0,5.262295723E0,5.917209507E0
6.337149801E0,9.964538217E-1,-3.646791935E0,5.594202042E0,6.751822578E0
6.342062561E0,8.381116390E-1,-4.874232292E0,5.901007652E0,7.699510560E0
6.346975321E0,8.403538465E-1,-6.094355583E0,6.130278111E0,8.684910723E0
6.351888082E0,9.697204232E-1,-7.393136024E0,6.185964584E0,9.688393872E0
6.356800842E0,1.140361190E0,-8.724937439E0,6.060048103E0,1.068406009E1
6.361713603E0,1.314268589E0,-1.014706230E1,5.775271416E0,1.174920998E1
6.366626363E0,1.443664551E0,-1.156622410E1,5.342050076E0,1.282182539E1
6.371539124E0,1.633429766E0,-1.295874500E1,4.933478832E0,1.396196183E1
6.376451884E0,1.797237277E0,-1.446366310E1,4.466442585E0,1.524390768E1
6.381364644E0,1.822579026E0,-1.601664543E1,3.891976357E0,1.658319044E1
6.386277353E0,1.716090679E0,-1.748656464E1,3.427294016E0,1.790171093E1
6.391190113E0,1.594379783E0,-1.889786530E1,3.134429932E0,1.922227902E1
6.396102874E0,1.475622296E0,-2.033475304E1,2.673989773E0,2.056282723E1
6.401015634E0,1.332231522E0,-2.176667786E1,2.084476471E0,2.190680597E1
6.405928394E0,1.143977404E0,-2.322536087E1,1.509194016E0,2.330244061E1
6.410841155E0,9.194674492E-1,-2.474495316E1,8.422290087E-1,2.477634914E1
6.415753915E0,6.507922411E-1,-2.619221306E1,1.115196943E-1,2.620053419E1
6.420666676E0,3.539597988E-1,-2.743412781E1,-6.001369953E-1,2.744297397E1
6.425579384E0,-3.399443626E-2,-2.833312035E1,-1.308148265E0,2.836332343E1
6.430492144E0,-4.804093838E-1,-2.901957893E1,-2.003755093E0,2.909264149E1
6.435404905E0,-8.472757339E-1,-2.961165619E1,-2.632471561E0,2.974051050E1
6.440317665E0,-8.902781010E-1,-3.041350937E1,-3.135267735E0,3.058764540E1
6.445230426E0,-6.824626923E-1,-3.120977211E1,-3.692668915E0,3.143487608E1
6.450143186E0,-5.154128075E-1,-3.184066200E1,-4.310967922E0,3.213530538E1
6.455055946E0,-6.812441349E-1,-3.232604980E1,-4.869611263E0,3.269787001E1
6.459968707E0,-1.063640356E0,-3.249208450E1,-5.178238392E0,3.291931103E1
6.464881467E0,-1.493896961E0,-3.240158081E1,-5.177620888E0,3.284664253E1
6.469794176E0,-1.877977610E0,-3.202135086E1,-4.855319977E0,3.244176079E1
6.474706936E0,-2.094997168E0,-3.166441345E1,-4.229034901E0,3.201419730E1
6.479619696E0,-1.999338865E0,-3.132250214E1,-3.454479694E0,3.157578069E1
6.484532457E0,-1.943584204E0,-3.068632507E1,-2.630297422E0,3.086011229E1
6.489445217E0,-2.111199141E0,-2.960030746E1,-1.805091143E0,2.973035011E1
6.494357978E0,-2.011103630E0,-2.809067535E1,-9.220051765E-1,2.817766266E1
6.499270738E0,-1.455204010E0,-2.639125824E1,-3.146171570E-3,2.643134768E1
6.504183499E0,-4.741342068E-1,-2.466587067E1,9.438475370E-1,2.468847559E1
6.509096207E0,7.471184731E-1,-2.290343475E1,1.736768484E0,2.298133752E1
6.514009019E0,1.892558932E0,-2.092807388E1,2.334208727E0,2.114271946E1
6.518921728E0,2.974009514E0,-1.871980095E1,2.797127962E0,1.915984355E1
6.523834488E0,4.007727146E0,-1.624218559E1,3.157403231E0,1.702467811E1
6.528747249E0,5.079094887E0,-1.345664024E1,3.314726830E0,1.476027728E1
6.533660009E0,6.237853527E0,-1.042513084E1,3.228162766E0,1.257040988E1
6.538572769E0,7.436218262E0,-7.266984940E0,3.030934811E0,1.083018827E1
6.543485530E0,8.553165436E0,-3.924516201E0,2.930244923E0,9.856206252E0
6.548398290E0,9.654507637E0,-2.853088379E-1,3.015882730E0,1.011861984E1
6.553310999E0,1.060084724E1,3.640772820E0,3.286659002E0,1.168055292E1
6.558223759E0,1.138931847E1,7.774300575E0,3.590973377E0,1.424961102E1
6.563136519E0,1.183019924E1,1.178473091E1,3.800879240E0,1.712542495E1
6.568049280E0,1.210917282E1,1.538491058E1,3.879405260E0,1.995939191E1
6.572962040E0,1.231589222E1,1.836693573E1,3.959736347E0,2.246564135E1
6.577874801E0,1.200234318E1,2.067156982E1,4.146294117E0,2.426029257E1
6.582787561E0,1.090935421E1,2.273485947E1,4.610997200E0,2.563492031E1
6.587700321E0,9.523851395E0,2.468855476E1,5.463165760E0,2.701989382E1
6.592613082E0,8.234634399E0,2.606596184E1,6.938650131E0,2.820263172E1
6.597525842E0,7.242041588E0,2.678757095E1,8.770124435E0,2.910216842E1
6.602438551E0,6.286704540E0,2.701973343E1,1.071231461E1,2.973789389E1
6.607351311E0,5.106180191E0,2.688285065E1,1.260095215E1,3.012548307E1
6.612264071E0,3.849924326E0,2.647063446E1,1.416847515E1,3.026982151E1
6.617176832E0,2.682385921E0,2.571404648E1,1.526149940E1,3.002200434E1
6.622089592E0,1.661048770E0,2.470939827E1,1.582842064E1,2.939136516E1
6.627002353E0,7.533118725E-1,2.363483047E1,1.580880928E1,2.844452744E1
6.631915113E0,5.898296833E-2,2.251385498E1,1.519040108E1,2.715926048E1
6.636827874E0,-3.929974437E-1,2.119870377E1,1.392103672E1,2.536404447E1
6.641740582E0,-7.959107161E-1,1.977463150E1,1.216469097E1,2.323035151E1
6.646653342E0,-1.091867328E0,1.839887619E1,1.025451946E1,2.109184650E1
6.651566103E0,-1.162853003E0,1.703482628E1,8.334560394E0,1.900006396E1
6.656478863E0,-1.019735217E0,1.559784603E1,6.580439568E0,1.695980087E1
6.661391624E0,-7.736809254E-1,1.417054272E1,5.029441357E0,1.505649838E1
6.666304384E0,-5.192342997E-1,1.273474693E1,3.731328011E0,1.328029339E1
6.671217144E0,-2.173881084E-1,1.130541611E1,2.657831192E0,1.161566862E1
6.676129905E0,2.697020769E-2,9.894796371E0,1.860406876E0,1.006820919E1
6.681042665E0,1.949525177E-1,8.541215897E0,1.276246071E0,8.638239376E0
6.685955374E0,3.270793557E-1,7.237369537E0,7.952744961E-1,7.288275533E0
6.690868134E0,3.607830703E-1,5.966371536E0,3.602659702E-1,5.988117008E0
6.695780894E0,3.052901328E-1,4.701919556E0,-9.823942184E-2,4.712844211E0
6.700693655E0,2.004808784E-1,3.496621132E0,-5.012247562E-1,3.538047227E0
6.705606415E0,8.610078692E-2,2.460352898E0,-8.030986786E-1,2.589539962E0
6.710519176E0,2.846172452E-2,1.564185143E0,-1.054037333E0,1.886393365E0
6.715431936E0,4.167950153E-2,7.720870972E-1,-1.189554095E0,1.418765172E0
6.720344696E0,1.616905034E-1,2.887535095E-2,-1.226360202E0,1.237310369E0
6.725257457E0,3.747858405E-1,-6.607179642E-1,-1.231649756E0,1.447056936E0
6.730170165E0,5.409407020E-1,-1.270287514E0,-1.356782556E0,1.935744331E0
6.735082926E0,6.420521736E-1,-1.763803482E0,-1.514146805E0,2.411612378E0
6.739995686E0,6.763875484E-1,-2.193720341E0,-1.630701184E0,2.815864947E0
6.744908446E0,5.770181417E-1,-2.617170334E0,-1.827276587E0,3.243681584E0
6.749821207E0,3.268587589E-1,-2.993213654E0,-2.049889565E0,3.642555676E0
6.754733967E0,4.455953836E-3,-3.414936066E0,-2.208519936E0,4.066862242E0
6.759646728E0,-3.260597289E-1,-3.829664707E0,-2.214903831E0,4.436039416E0
6.764559488E0,-6.465508342E-1,-4.115638256E0,-2.030360222E0,4.634530059E0
6.769472196E0,-1.046375871E0,-4.340211868E0,-1.792947531E0,4.811133169E0
6.774384957E0,-1.459534407E0,-4.537220478E0,-1.518437147E0,5.002225677E0
6.779297717E0,-1.820130944E0,-4.687847614E0,-1.169974804E0,5.163103035E0
6.784210478E0,-2.045258999E0,-4.787672043E0,-7.752680779E-1,5.263642138E0
6.789123238E0,-2.173820734E0,-4.765321255E0,-4.122209549E-1,5.253923235E0
6.794035999E0,-2.263625145E0,-4.673771381E0,-8.001828194E-2,5.193702018E0
6.798948759E0,-2.303094625E0,-4.515611649E0,2.098371983E-1,5.073364275E0
6.803861519E0,-2.271032572E0,-4.305356979E0,4.935979843E-1,4.892578730E0
6.808774228E0,-2.100225687E0,-4.138793468E0,8.170070648E-1,4.712542823E0
6.813686988E0,-1.768342376E0,-3.915517807E0,9.985818863E-1,4.410836682E0
6.818599749E0,-1.470708132E0,-3.664250374E0,1.026386261E0,4.079605614E0
6.823512509E0,-1.206612468E0,-3.279641628E0,1.017160892E0,3.639585023E0
6.828425269E0,-8.555520773E-1,-2.838250637E0,1.020690203E0,3.135194496E0
6.833338030E0,-5.096108317E-1,-2.438020229E0,8.880269527E-1,2.644283969E0
6.838250790E0,-1.339754760E-1,-2.095460892E0,7.093935013E-1,2.216335921E0
6.843163551E0,2.126393318E-1,-1.788770199E0,5.412771702E-1,1.880929367E0
6.848076259E0,4.425937533E-1,-1.491363049E0,3.562963009E-1,1.595932338E0
6.852989019E0,5.803818703E-1,-1.191145897E0,2.112417221E-1,1.341750621E0
6.857901780E0,6.408010125E-1,-9.000082016E-1,9.134101868E-2,1.108595455E0
6.862814540E0,7.055356503E-1,-6.347436905E-1,6.607937813E-2,9.513393667E-1
6.867727301E0,7.411537766E-1,-3.906364441E-1,8.786368370E-2,8.423928887E-1
6.872640061E0,7.474538088E-1,-2.036142349E-1,8.528637886E-2,7.793713616E-1
6.877552821E0,7.334927320E-1,-6.887054443E-2,7.303023338E-2,7.403297609E-1
6.882465582E0,7.013105154E-1,-5.818653107E-2,5.402684212E-2,7.057910534E-1
6.887378342E0,5.952615738E-1,-2.565479279E-2,5.753684044E-2,5.985858315E-1
6.892291051E0,4.240904152E-1,-3.119468689E-2,2.911210060E-2,4.262315136E-1
6.897203811E0,2.586802542E-1,-1.749706268E-2,5.547595024E-2,2.651399672E-1
6.902116571E0,1.196659803E-1,2.723693848E-2,1.084480286E-1,1.637765935E-1
6.907029332E0,8.981943130E-3,8.130264282E-2,1.120305061E-1,1.387142002E-1
6.911942092E0,-9.144186974E-3,1.445741653E-1,1.312541962E-1,1.954813788E-1
6.916854853E0,-8.577978611E-2,2.097988129E-1,1.041500568E-1,2.494412715E-1
6.921767613E0,-6.558723748E-2,2.171745300E-1,1.145203114E-1,2.541286366E-1
6.926680374E0,-2.989146113E-2,1.930236816E-1,1.815712452E-1,2.666828795E-1
6.931593082E0,-1.681335270E-2,1.469440460E-1,1.378326416E-1,2.021709143E-1
6.936505842E0,-5.968142301E-2,1.363353729E-1,8.627152443E-2,1.720232022E-1
6.941418603E0,-1.994935423E-1,1.516017914E-1,-1.139068604E-2,2.508197048E-1
6.946331363E0,-3.983308673E-1,1.424961090E-1,-8.335947990E-2,4.311860663E-1
6.951244124E0,-1.171512455E-1,-2.236766815E-1,5.323743820E-2,2.580501831E-1
6.956156884E0,7.864688039E-1,-8.253326416E-1,9.531416893E-1,1.485996712E0
6.961069644E0,4.201189876E-1,-3.058147430E-1,1.205135107E0,1.312392185E0
6.965982405E0,-1.118132591E0,8.253078461E-1,-2.601213455E-1,1.413865852E0
6.970895113E0,-1.449451685E0,1.003715515E0,-1.349086881E0,2.219997845E0
6.975807874E0,-4.288035035E-1,-6.115913391E-3,-1.414417148E0,1.478000581E0
6.980720634E0,6.150744557E-1,-8.782787323E-1,-6.694761515E-1,1.264076119E0
6.985633394E0,9.129878283E-1,-5.202817917E-1,-2.149839401E-1,1.072594057E0
6.990546155E0,5.662338734E-1,3.727750778E-1,-3.418064117E-1,7.592191259E-1
6.995458915E0,3.977799416E-1,6.188297272E-1,-2.522814274E-1,7.777049773E-1
7.000371676E0,4.908016920E-1,1.733512878E-1,1.475000381E-2,5.207250066E-1
7.005284436E0,5.003424883E-1,-3.672103882E-1,1.379835606E-1,6.357873369E-1
7.010197196E0,3.687068820E-1,-5.554704666E-1,1.672792435E-2,6.669123088E-1
7.015109905E0,1.029081345E-1,-4.420299530E-1,-1.839010715E-1,4.896939530E-1
7.020022665E0,-1.610411853E-1,-2.592620850E-1,-2.435650826E-1,3.904805264E-1
7.024935426E0,-2.632102966E-1,-2.631587982E-1,-1.144032478E-1,3.893845354E-1
7.029848186E0,-2.466443330E-1,-3.770370483E-1,-2.835464478E-2,4.514358744E-1
7.034760946E0,-2.618244886E-1,-4.835472107E-1,-6.686067581E-2,5.539316905E-1
7.039673707E0,-2.653378248E-1,-5.515251160E-1,-1.727285385E-1,6.359396692E-1
7.044586467E0,-2.209651619E-1,-5.617637634E-1,-2.746303082E-1,6.631937385E-1
7.049499176E0,-1.642597318E-1,-5.764141083E-1,-3.466429710E-1,6.923841658E-1
7.054411936E0,-1.259591281E-1,-5.858812332E-1,-4.176168442E-1,7.304288808E-1
7.059324696E0,-1.395670176E-1,-5.901556015E-1,-4.637248516E-1,7.634155647E-1
7.064237457E0,-1.597957015E-1,-5.844764709E-1,-4.514331818E-1,7.556052732E-1
7.069150217E0,-1.388856918E-1,-5.880346298E-1,-4.308598042E-1,7.421011603E-1
7.074062978E0,-1.200295612E-1,-5.339078903E-1,-4.114067554E-1,6.846314697E-1
7.078975738E0,-5.076718330E-2,-4.294481277E-1,-3.400781155E-1,5.501419144E-1
7.083888499E0,1.611027122E-2,-3.656606674E-1,-3.027129173E-1,4.749761835E-1
7.088801207E0,1.070601642E-1,-3.377971649E-1,-2.583122253E-1,4.385134082E-1
7.093713967E0,2.173022181E-1,-2.789840698E-1,-1.466784477E-1,3.828406094E-1
7.098626728E0,3.323380053E-1,-1.749715805E-1,-5.374288559E-2,3.794099386E-1
7.103539488E0,3.732150793E-1,-6.413078308E-2,2.789759636E-2,3.797111121E-1
7.108452249E0,4.260180295E-1,9.374618530E-4,8.147573471E-2,4.337401706E-1
7.113365009E0,4.692873955E-1,8.251190186E-2,5.662012100E-2,4.798382140E-1
7.118277769E0,4.958626032E-1,1.734752655E-1,-1.099181175E-2,5.254466756E-1
7.123190530E0,5.034875870E-1,1.902112961E-1,-1.072683334E-1,5.488046854E-1
7.128103238E0,4.922597706E-1,1.735448837E-1,-1.392319202E-1,5.402064754E-1
7.133015999E0,4.815600514E-1,1.498680115E-1,-1.430311203E-1,5.242312518E-1
7.137928759E0,4.691132605E-1,9.530353546E-2,-1.307458878E-1,4.962302915E-1
7.142841519E0,4.453979433E-1,7.684516907E-2,-1.096050739E-1,4.650782516E-1
7.147754280E0,4.055988789E-1,6.096458435E-2,-1.106581688E-1,4.248203872E-1
7.152667040E0,3.304815590E-1,1.900100708E-2,-1.244318485E-1,3.536416040E-1
7.157579801E0,2.462714314E-1,-2.507209778E-2,-1.342606544E-1,2.816099277E-1
7.162492561E0,1.576665342E-1,-5.684375763E-2,-1.236073971E-1,2.082516204E-1
7.167405321E0,9.568902850E-2,-8.833217621E-2,-1.018960476E-1,1.653534640E-1
7.172318030E0,8.910223842E-2,-1.291427612E-1,-1.876378059E-2,1.580162686E-1
7.177230790E0,1.355307102E-1,-2.032423019E-1,6.615853310E-2,2.530868590E-1
7.182143551E0,2.089132369E-1,-2.174415588E-1,1.962714195E-1,3.597888856E-1
7.187056311E0,2.856361866E-1,-2.101602554E-1,2.259371281E-1,4.204794286E-1
7.191969071E0,2.148311734E-1,-1.957683563E-1,2.437610626E-1,3.793377625E-1
7.196881832E0,6.788910925E-2,-1.862163544E-1,2.378137112E-1,3.095816904E-1
7.201794592E0,-6.472472847E-2,-1.982135773E-1,2.032954693E-1,2.912163466E-1
7.206707301E0,-1.714735925E-1,-1.815176010E-1,1.689665318E-1,3.014987915E-1
7.211620061E0,-2.861156464E-1,-1.912708282E-1,2.212986946E-1,4.091696532E-1
7.216532821E0,-3.177367151E-1,-2.466630936E-1,3.485410213E-1,5.322406837E-1
7.221445582E0,-3.478551507E-1,-2.521457672E-1,4.913547039E-1,6.526945218E-1
7.226358342E0,-4.603297114E-1,-2.485361099E-1,5.687863827E-1,7.727817223E-1
7.231271103E0,-5.908238292E-1,-2.095251083E-1,5.808649063E-1,8.546213241E-1
7.236183863E0,-6.989507675E-1,-1.876993179E-1,5.203006268E-1,8.913338048E-1
7.241096571E0,-7.416854501E-1,-1.709899902E-1,4.203517437E-1,8.695001277E-1
7.246009332E0,-7.091587782E-1,-1.329507828E-1,3.092572689E-1,7.849981794E-1
7.250922092E0,-5.962513685E-1,-8.312129974E-2,1.987812519E-1,6.339864597E-1
7.255834853E0,-4.743589759E-1,-4.529571533E-2,8.366179466E-2,4.838051630E-1
7.260747613E0,-3.358900547E-1,-3.610992432E-2,4.964303970E-2,3.414534915E-1
7.265660374E0,-2.282466143E-1,2.104568481E-2,7.510185242E-4,2.292160593E-1
7.270573134E0,-1.176244244E-1,7.114315033E-2,-1.768493652E-2,1.385987375E-1
7.275485894E0,-6.164461374E-3,1.189556122E-1,-1.285314560E-2,1.198066843E-1
7.280398603E0,7.283404469E-2,1.740522385E-1,4.149746895E-2,1.931864895E-1
7.285311363E0,1.288203001E-1,2.196731567E-1,7.602429390E-2,2.657642918E-1
7.290224124E0,1.042219698E-1,2.916908264E-1,3.339719772E-2,3.115463529E-1
7.295136884E0,8.243922889E-2,3.350801468E-1,-2.169489861E-2,3.457536693E-1
7.300049644E0,5.109865963E-2,3.785429001E-1,-2.216243744E-2,3.826185749E-1
7.304962405E0,6.036424637E-2,4.196338654E-1,-3.737449646E-3,4.239698005E-1
7.309875165E0,7.189835608E-2,4.343786240E-1,8.399581909E-2,4.482292496E-1
7.314787874E0,1.432068348E-1,4.825105667E-1,2.125089169E-1,5.463375186E-1
7.319700634E0,1.940698028E-1,4.934539795E-1,2.913873196E-1,6.050342868E-1
7.324613394E0,2.566380501E-1,4.709167480E-1,3.083775043E-1,6.186455831E-1
7.329526155E0,2.596866786E-1,4.412908554E-1,3.043475151E-1,5.956527513E-1
7.334438915E0,2.463379502E-1,3.809261322E-1,2.888813019E-1,5.378099204E-1
7.339351676E0,2.547072768E-1,3.162479401E-1,2.832498550E-1,4.950949776E-1
7.344264436E0,1.448404640E-1,1.696453094E-1,-3.014495373E-1,3.750068193E-1
7.349177196E0,2.795033157E-1,1.233291626E-1,-2.036356926E0,2.059145870E0
7.354089905E0,7.095761299E-1,1.189870834E-1,-1.493879795E0,1.658111291E0
7.359002665E0,7.153573632E-1,1.809654236E-1,-5.777597427E-3,7.379146443E-1
7.363915426E0,7.536685467E-1,2.077426910E-1,1.310913801E0,1.526325096E0
7.368828186E0,7.216618657E-1,1.658477783E-1,1.925238848E0,2.062727795E0
7.373740946E0,5.215272307E-1,9.646129608E-2,1.813750505E0,1.889705355E0
7.378653707E0,2.724803686E-1,1.381998062E-1,1.303124428E0,1.338461061E0
7.383566467E0,1.075545996E-1,2.053661346E-1,6.935272217E-1,7.312477339E-1
7.388479228E0,3.794775903E-2,2.697467804E-1,1.836004257E-1,3.285003414E-1
7.393391936E0,7.511806488E-2,3.127355576E-1,-1.337733269E-1,3.483411483E-1
7.398304696E0,1.735647023E-1,3.466987610E-1,-4.654927254E-1,6.058120287E-1
7.403217457E0,1.501995176E-1,3.624925613E-1,-8.242880106E-1,9.129137290E-1
7.408130217E0,1.223334670E-1,3.485431671E-1,-1.075106025E0,1.136794080E0
7.413042978E0,2.377324551E-1,2.527933121E-1,-1.130805492E0,1.182853432E0
7.417955738E0,2.364747524E-1,1.944103241E-1,-9.946342707E-1,1.040679112E0
7.422868499E0,1.151008606E-1,2.385168076E-1,-7.410137653E-1,7.869179602E-1
7.427781207E0,7.687464356E-3,2.540788651E-1,-4.069809914E-1,4.798423638E-1
