"Time (s)","Linear Acceleration x (m/s^2)","Linear Acceleration y (m/s^2)","Linear Acceleration z (m/s^2)","Absolute acceleration (m/s^2)"
6.254416658E-3,-4.700382609E-1,3.818278599E-1,-9.892570871E-1,1.159895713E0
1.626441663E-2,-2.180178027E-1,2.695303291E-1,-1.059068237E0,1.114362550E0
2.627341670E-2,3.068729141E-1,8.330703557E-2,-9.593709446E-1,1.010694641E0
3.628241667E-2,9.899353641E-1,7.500983655E-2,-5.405085750E-1,1.130375168E0
4.629241663E-2,9.575105799E-1,1.079998273E-1,-1.573532510E-1,9.763454916E-1
5.630141671E-2,6.458121049E-1,5.051351130E-2,8.840259165E-3,6.478449196E-1
6.631141668E-2,2.499406949E-1,-1.969593662E-1,7.674352138E-1,8.307948906E-1
7.632041664E-2,-2.213311640E-1,-9.795021772E-2,5.961024396E-1,6.433660294E-1
8.632941660E-2,-4.855427013E-1,2.569851279E-2,4.824531788E-1,6.849621873E-1
9.633941669E-2,-7.084364424E-1,2.363853872E-2,6.867895384E-1,9.869756043E-1
1.063484167E-1,-5.841595016E-1,8.575000226E-2,7.652328600E-1,9.665281767E-1
1.163584166E-1,-3.207648661E-2,1.078647566E-1,9.735584825E-1,9.800407265E-1
1.263674167E-1,7.446320229E-1,1.422481388E-1,1.242532595E0,1.455540667E0
1.363764167E-1,1.349975621E0,1.331177115E-1,1.321401740E0,1.893741551E0
1.463864166E-1,1.261354198E0,6.866443813E-2,1.304286794E0,1.815734908E0
1.563954167E-1,4.518203469E-1,5.417971551E-2,1.090875702E0,1.181984291E0
1.664054167E-1,-6.791473737E-1,1.222225946E-1,5.386513531E-1,8.753997933E-1
1.764144166E-1,-1.422826958E0,8.051031232E-3,-1.484729384E-1,1.430575264E0
1.864234166E-1,-1.517916133E0,-1.250538164E-1,-7.091612779E-1,1.680064750E0
1.964334167E-1,-1.165559264E0,-2.025229919E-1,-9.852359569E-1,1.539556381E0
2.064424166E-1,-7.387609068E-1,-3.375352013E-1,-7.867510521E-1,1.130785085E0
2.164524166E-1,-3.585807557E-1,-4.180934608E-1,-3.324621570E-1,6.433610077E-1
2.264614167E-1,-7.060716639E-2,-4.225817835E-1,6.317331791E-3,4.284864577E-1
2.364704167E-1,8.147851987E-2,-4.405602175E-1,7.829480231E-2,4.548209873E-1
2.464804166E-1,1.133954826E-1,-4.984657788E-1,-5.660031661E-2,5.143250567E-1
2.564894167E-1,1.386394474E-1,-5.023401439E-1,-2.801811786E-1,5.916654540E-1
2.664984167E-1,1.515230653E-1,-5.823025721E-1,-4.908282919E-1,7.764972228E-1
2.765084166E-1,1.577769183E-1,-6.825922608E-1,-6.673082238E-1,9.675360542E-1
2.865174167E-1,1.859558748E-1,-6.751218581E-1,-8.214210941E-1,1.079398779E0
2.965274167E-1,2.187475901E-1,-6.214654684E-1,-1.124845540E0,1.303590167E0
3.065364166E-1,2.089383194E-1,-6.093991542E-1,-1.402761215E0,1.543619634E0
3.165454166E-1,1.370900175E-1,-5.033967358E-1,-1.457898412E0,1.548441063E0
3.265554167E-1,8.860125080E-2,-3.507645267E-1,-1.302756139E0,1.352057503E0
3.365644166E-1,5.352084395E-3,3.108145952E-2,-7.902471024E-1,7.908762133E-1
3.465744166E-1,-1.169632617E-1,7.404136223E-1,-6.277716905E-3,7.496213353E-1
3.565834167E-1,-5.901486950E-1,1.755600772E0,1.045698067E0,2.126944757E0
3.665924167E-1,-1.409590909E0,2.696352866E0,2.203215655E0,3.756517607E0
3.766024166E-1,-2.441600790E0,3.344100400E0,2.930422756E0,5.072652110E0
3.866114167E-1,-3.798153360E0,3.865870256E0,2.960884995E0,6.175577847E0
3.966214167E-1,-6.071117819E0,4.351763937E0,3.056288751E0,8.070763400E0
4.066304166E-1,-8.342382785E0,4.939024948E0,3.736303851E0,1.038986451E1
4.166394167E-1,-9.758549180E0,5.403642949E0,3.960784015E0,1.183707942E1
4.266494167E-1,-1.011105325E1,5.249911464E0,3.197972633E0,1.183308908E1
4.366584166E-1,-9.977962439E0,4.816260316E0,2.484177876E0,1.135461305E1
4.466684166E-1,-9.856002384E0,4.065560857E0,1.920967047E0,1.083326740E1
4.566774167E-1,-8.839507213E0,2.722463608E0,1.164135613E0,9.322226536E0
4.666864167E-1,-6.912798200E0,8.374733090E-1,3.084084660E-1,6.970169028E0
4.766964166E-1,-4.321453140E0,-1.996562775E0,-5.921650708E-1,4.797069900E0
4.867054167E-1,-5.162585637E-1,-5.426755239E0,-1.664913965E0,5.699836299E0
4.967154167E-1,4.033396201E0,-8.516774238E0,-2.569396366E0,9.767575237E0
5.067244166E-1,8.001223480E0,-1.149503423E1,-3.264826773E0,1.438104597E1
5.167334167E-1,1.217662896E1,-1.413375402E1,-3.874821759E0,1.905380642E1
5.267434167E-1,1.725589470E1,-1.532477338E1,-4.369930066E0,2.348852634E1
5.367524166E-1,2.143273041E1,-1.561761948E1,-4.195829220E0,2.684915182E1
5.467614166E-1,2.243837198E1,-1.570927224E1,-3.086943364E0,2.756430646E1
5.567714167E-1,2.017527265E1,-1.548306101E1,-1.954268110E0,2.550658677E1
5.667804166E-1,1.658435251E1,-1.478712424E1,-1.594055652E0,2.227646302E1
5.767904166E-1,1.130012666E1,-1.334394253E1,-1.087699640E0,1.751961059E1
5.867994167E-1,3.306927896E0,-1.108059996E1,-4.957623918E-2,1.156364672E1
5.968084167E-1,-4.322621122E0,-7.231290774E0,2.167272309E-2,8.424790165E0
6.068184166E-1,-1.020433622E1,-1.820275070E0,-1.373578200E0,1.045603157E1
6.168274167E-1,-1.538007049E1,4.060448636E0,-3.241455452E0,1.623394114E1
6.268374167E-1,-1.949959530E1,9.222434934E0,-4.359354208E0,2.200662383E1
6.368464166E-1,-2.147591560E1,1.304779393E1,-4.274835044E0,2.548988215E1
6.468554167E-1,-2.170362021E1,1.525975234E1,-2.795946736E0,2.667816504E1
6.568654167E-1,-1.996198727E1,1.605522393E1,-5.100777644E-1,2.562247706E1
6.668744166E-1,-1.721545419E1,1.514195901E1,1.266633795E0,2.296203707E1
6.768844166E-1,-1.456267185E1,1.293764174E1,2.482710224E0,1.963715446E1
6.868934167E-1,-1.197395160E1,1.022074585E1,3.524793981E0,1.613267911E1
6.969024166E-1,-9.533931314E0,6.844101602E0,4.133586779E0,1.244283379E1
7.069124166E-1,-6.460951687E0,2.954409789E0,3.504569047E0,7.921769884E0
7.169214167E-1,-2.659639369E0,-8.575947475E-1,1.505729367E0,3.174330047E0
7.269314167E-1,6.093202168E-1,-4.673055573E0,-3.350431180E-1,4.724507742E0
7.369404166E-1,3.536689557E0,-8.182022311E0,-1.545424359E0,9.046656762E0
7.469494167E-1,6.506096284E0,-1.064833636E1,-2.276338010E0,1.268456033E1
7.569594167E-1,8.816564493E0,-1.235467785E1,-2.597237883E0,1.539855574E1
7.669684166E-1,1.046693819E1,-1.365283574E1,-2.665114701E0,1.740860577E1
7.769784166E-1,1.191995490E1,-1.437134744E1,-2.563058569E0,1.884649096E1
7.869874167E-1,1.301645987E1,-1.480467875E1,-2.478030113E0,1.986825039E1
7.969964166E-1,1.369251143E1,-1.490407323E1,-2.476844298E0,2.038997366E1
8.070064166E-1,1.393165437E1,-1.485716102E1,-2.693826869E0,2.054465697E1
8.170154167E-1,1.338316332E1,-1.437634096E1,-3.211275049E0,1.990227443E1
8.270244166E-1,1.157297060E1,-1.301726094E1,-3.568922333E0,1.777976202E1
8.370344166E-1,7.875114241E0,-1.100181458E1,-3.720123144E0,1.403198719E1
8.470434167E-1,2.854510694E0,-8.487312457E0,-3.992624443E0,9.804272232E0
8.570534167E-1,-3.070701845E0,-5.690236623E0,-3.516832997E0,7.360442716E0
8.670624166E-1,-8.414908724E0,-1.958300350E0,-2.663768672E0,9.041089129E0
8.770714167E-1,-1.222866918E1,2.575104418E0,-2.071467946E0,1.266737905E1
8.870814167E-1,-1.463742616E1,7.279492296E0,-1.481165652E0,1.641460034E1
8.970904166E-1,-1.655522869E1,1.175946170E1,1.227932829E-1,2.030703363E1
9.071004166E-1,-1.860906085E1,1.552098254E1,2.972442017E0,2.441379644E1
9.171094167E-1,-1.976647275E1,1.771772767E1,5.573954800E0,2.712379566E1
9.271184166E-1,-1.865093393E1,1.825417696E1,6.637115430E0,2.692811940E1
9.371284166E-1,-1.577425118E1,1.767999208E1,6.453272538E0,2.455715470E1
9.471374167E-1,-1.316435700E1,1.582323214E1,6.294685525E0,2.152435914E1
9.571474167E-1,-1.147513499E1,1.292478137E1,6.549348139E0,1.848303702E1
9.671564166E-1,-1.006899189E1,9.124001736E0,6.122825916E0,1.490372445E1
9.771654167E-1,-8.022475770E0,4.796305524E0,4.882677085E0,1.054538760E1
9.871754167E-1,-5.930255470E0,1.389555717E-1,3.280589697E0,6.778606594E0
9.971844166E-1,-4.064991923E0,-5.317070829E0,1.324183846E0,6.822672818E0
1.007194417E0,-5.602629545E-1,-1.074545042E1,-7.362141520E-1,1.078520332E1
1.017203417E0,4.904726350E0,-1.471341190E1,-2.504995717E0,1.571037344E1
1.027212417E0,1.092372852E1,-1.681890538E1,-3.812602707E0,2.041419512E1
1.037222417E0,1.668625895E1,-1.778499872E1,-4.382956493E0,2.477796853E1
1.047231417E0,2.078136696E1,-1.781112642E1,-4.248744768E0,2.769753182E1
1.057241417E0,2.144921488E1,-1.804051269E1,-4.261403405E0,2.834939992E1
1.067250417E0,1.889317472E1,-1.890703964E1,-4.417398933E0,2.709135678E1
1.077259417E0,1.513046221E1,-1.931625118E1,-4.746431113E0,2.499153966E1
1.087269417E0,1.116240017E1,-1.868698319E1,-5.624596950E0,2.248196186E1
1.097278417E0,6.228564625E0,-1.713591334E1,-5.755759352E0,1.911970996E1
1.107288417E0,8.149467646E-1,-1.409074892E1,-4.335679416E0,1.476521112E1
1.117297417E0,-3.990029157E0,-9.550470749E0,-2.446873809E0,1.063574236E1
1.127306417E0,-8.550786906E0,-4.618992217E0,-8.901234660E-1,9.759270752E0
1.137316417E0,-1.201036689E1,7.287724006E-1,1.241275444E-1,1.203309726E1
1.147325417E0,-1.410271700E1,6.256661666E0,5.519402470E-1,1.543816958E1
1.157335417E0,-1.594378652E1,1.086543646E1,9.028521236E-1,1.931520593E1
1.167344417E0,-1.844661819E1,1.378117276E1,1.943394043E0,2.310790396E1
1.177353417E0,-1.897433758E1,1.622870146E1,2.420346161E0,2.508494196E1
1.187363417E0,-1.822188513E1,1.779520796E1,2.727557117E0,2.561534875E1
1.197372417E0,-1.734076002E1,1.744059304E1,2.768798114E0,2.474959568E1
1.207382417E0,-1.544604229E1,1.578442066E1,2.431702770E0,2.221804079E1
1.217391417E0,-1.301726561E1,1.326219027E1,2.343341839E0,1.873035360E1
1.227400417E0,-1.050759037E1,9.519124995E0,1.998890551E0,1.431847616E1
1.237410417E0,-7.978651473E0,5.325281489E0,1.445744535E0,9.700911273E0
1.247419417E0,-5.724573812E0,3.787001842E-1,1.009726873E0,5.825264588E0
1.257428417E0,-2.421873454E0,-4.835793525E0,1.964546053E-1,5.411927979E0
1.267438417E0,2.468114697E0,-9.420102983E0,-6.215993696E-1,9.757884819E0
1.277447417E0,7.759572090E0,-1.285669873E1,-9.549112733E-1,1.504717637E1
1.287457417E0,1.291979838E1,-1.465734061E1,-1.216801777E0,1.957650199E1
1.297466417E0,1.698748060E1,-1.540425809E1,-1.799840806E0,2.300228448E1
1.307475417E0,1.905401759E1,-1.602074524E1,-2.291735630E0,2.499943832E1
1.317485417E0,1.844487455E1,-1.640636326E1,-2.343894547E0,2.479669321E1
1.327494417E0,1.635284487E1,-1.640812444E1,-2.634248419E0,2.331483107E1
1.337504417E0,1.362651274E1,-1.604700274E1,-2.957687738E0,2.125878791E1
1.347513417E0,9.396887197E0,-1.515800377E1,-1.823668355E0,1.792741848E1
1.357522417E0,4.983400052E0,-1.330618706E1,-1.012091634E0,1.424476113E1
1.367532417E0,9.193778899E-1,-1.084238907E1,-1.701868953E0,1.101358318E1
1.377541417E0,-3.682870825E0,-7.618712080E0,-1.886395823E0,8.669878919E0
1.387551417E0,-7.333722298E0,-3.540123627E0,-2.057618085E0,8.399389871E0
1.397560417E0,-9.397807549E0,7.233409220E-1,-2.272291737E0,9.695633995E0
1.407569417E0,-1.092897230E1,4.835066131E0,-1.637455441E0,1.206240276E1
1.417579417E0,-1.221459025E1,8.436963837E0,-3.522135399E-1,1.484933090E1
1.427588417E0,-1.307795971E1,1.151039838E1,4.494238655E-1,1.742768725E1
1.437598417E0,-1.450986681E1,1.358921452E1,1.007805552E0,1.990524198E1
1.447607417E0,-1.617391890E1,1.489595729E1,1.747462617E0,2.205762502E1
1.457616417E0,-1.723634863E1,1.581485425E1,2.481382322E0,2.352357513E1
1.467626417E0,-1.786587156E1,1.573726403E1,3.516107942E0,2.406686230E1
1.477635417E0,-1.681675243E1,1.463785418E1,4.038201150E0,2.265782438E1
1.487645417E0,-1.415493965E1,1.265285427E1,3.168700302E0,1.924831679E1
1.497654417E0,-1.132069950E1,9.738125440E0,2.323458382E0,1.511250420E1
1.507663417E0,-9.034765624E0,6.063269686E0,2.234474285E0,1.110779476E1
1.517673417E0,-6.716067460E0,1.627252634E0,1.892446083E0,7.164835339E0
1.527682417E0,-3.780686265E0,-2.679897047E0,9.509163094E-1,4.730716504E0
1.537692417E0,-1.107911418E0,-6.446183374E0,-1.524363273E-1,6.542475421E0
1.547701417E0,1.194949855E0,-9.779872806E0,-1.257449573E0,9.932522171E0
1.557710417E0,3.266763956E0,-1.263226856E1,-2.344979644E0,1.325688068E1
1.567720417E0,6.337176071E0,-1.505646570E1,-4.236738680E0,1.687622335E1
1.577729417E0,1.078034544E1,-1.673062879E1,-6.910087430E0,2.106843838E1
1.587739417E0,1.455313153E1,-1.747508576E1,-8.506864961E0,2.428042444E1
1.597748417E0,1.583511719E1,-1.804687913E1,-7.747848423E0,2.522835583E1
1.607757417E0,1.487633520E1,-1.862963603E1,-5.278744669E0,2.441789985E1
1.617767417E0,1.304661747E1,-1.877845235E1,-2.554115837E0,2.300799878E1
1.627776417E0,1.159130396E1,-1.807553049E1,-1.211715430E0,2.150700780E1
1.637786417E0,9.274220799E0,-1.657668330E1,-1.866249973E-1,1.899558974E1
1.647795417E0,5.541294007E0,-1.431511009E1,1.329588865E0,1.540766442E1
1.657804417E0,1.497054876E0,-1.092084467E1,2.258239124E0,1.125191831E1
1.667814417E0,-2.265563054E0,-6.387845703E0,1.695358663E0,6.986529158E0
1.677823417E0,-6.940297070E0,-1.657182777E0,6.888884696E-1,7.168580438E0
1.687833417E0,-1.130677260E1,3.633091432E0,5.809142970E-2,1.187627192E1
1.697842417E0,-1.531064416E1,8.767665982E0,7.796185454E-1,1.766056615E1
1.707851417E0,-1.847789377E1,1.271578785E1,2.499291174E0,2.256923294E1
1.717861417E0,-1.931850119E1,1.569450919E1,3.159412000E0,2.508991812E1
1.727870417E0,-1.802145193E1,1.785359825E1,3.282149150E0,2.557921428E1
1.737880417E0,-1.653443132E1,1.825996921E1,4.149905773E0,2.498070481E1
1.747889417E0,-1.467329883E1,1.703648729E1,4.532659832E0,2.293670863E1
1.757898417E0,-1.226257367E1,1.477435859E1,4.510977772E0,1.972311602E1
1.767908417E0,-9.777701150E0,1.146136597E1,4.442013956E0,1.570661764E1
1.777917417E0,-7.150868754E0,7.900068403E0,4.008110209E0,1.138468059E1
1.787927417E0,-4.818836600E0,4.328382676E0,3.314118217E0,7.275950956E0
1.797936417E0,-2.898249037E0,2.052331764E-1,2.751961641E0,4.001907172E0
1.807945417E0,-6.608447117E-1,-4.145643153E0,1.783672231E0,4.561201543E0
1.817955417E0,2.303493942E0,-8.314618451E0,-1.193896917E-1,8.628627830E0
1.827964417E0,5.641304784E0,-1.208388043E1,-2.231999305E0,1.352132785E1
1.837973417E0,9.363542281E0,-1.503818730E1,-4.114371074E0,1.818656237E1
1.847983417E0,1.346348067E1,-1.679617257E1,-5.438978258E0,2.220268473E1
1.857992417E0,1.704119780E1,-1.730875119E1,-5.869715738E0,2.498897463E1
1.868002417E0,1.825890268E1,-1.745873344E1,-5.058350247E0,2.576396335E1
1.878011333E0,1.712715772E1,-1.733685758E1,-3.369771430E0,2.460206337E1
1.888020333E0,1.474541020E1,-1.657654530E1,-2.255348260E0,2.230012493E1
1.898030333E0,1.123442617E1,-1.543274338E1,-1.843967988E0,1.917764630E1
1.908039333E0,6.305509306E0,-1.361542408E1,-4.102733946E-1,1.501024799E1
1.918049333E0,9.112056752E-1,-1.014750597E1,1.739395945E0,1.033574726E1
1.928058333E0,-5.089823470E0,-5.687565615E0,2.705948147E0,8.097954122E0
1.938068333E0,-1.064980401E1,-6.982271308E-1,2.216383585E0,1.090037627E1
1.948077333E0,-1.504466485E1,4.574202545E0,1.181513538E0,1.576899628E1
1.958086333E0,-1.809303822E1,9.120306296E0,-3.187066918E-1,2.026424420E1
1.968096333E0,-1.919440573E1,1.288781060E1,-1.742737482E0,2.318529722E1
1.978105333E0,-1.885845746E1,1.556090850E1,-2.332824453E0,2.456064660E1
1.988115333E0,-1.748321690E1,1.669954499E1,-2.426344235E0,2.429865886E1
1.998124333E0,-1.592385687E1,1.630169342E1,-2.421281131E0,2.291674123E1
2.008133333E0,-1.472822874E1,1.445396392E1,-2.175798646E0,2.075022638E1
2.018143333E0,-1.325806097E1,1.189019141E1,-1.908503707E0,1.791075707E1
2.028152333E0,-1.148528576E1,8.864212868E0,-1.719693605E0,1.460970242E1
2.038162333E0,-9.725627602E0,5.099635683E0,-1.620878000E0,1.110051178E1
2.048171333E0,-7.428891580E0,1.015157329E0,-1.415371174E0,7.630350586E0
2.058180333E0,-4.853719334E0,-3.536212424E0,-1.414622145E0,6.169647113E0
2.068190333E0,-1.930474474E0,-8.804122787E0,-1.946689387E0,9.221112152E0
2.078199333E0,2.886135945E0,-1.314954834E1,-2.488203099E0,1.369056452E1
2.088209333E0,9.011007217E0,-1.535232195E1,-2.296457256E0,1.794897647E1
2.098218333E0,1.425059308E1,-1.621147089E1,-1.396771765E0,2.162965933E1
2.108227333E0,1.751119583E1,-1.634686667E1,-1.241124147E-1,2.395573905E1
2.118237333E0,1.829790010E1,-1.648357107E1,7.322895008E-1,2.463853711E1
2.128246333E0,1.721881516E1,-1.654235546E1,9.492324574E-1,2.389640480E1
2.138256333E0,1.529803757E1,-1.639632827E1,7.072306734E-1,2.243590224E1
2.148265333E0,1.251719185E1,-1.580024556E1,1.700447787E-1,2.015829276E1
2.158274333E0,9.324481711E0,-1.445314531E1,-6.555430412E-1,1.721246947E1
2.168284333E0,5.684437940E0,-1.211961159E1,-1.101837038E0,1.343174838E1
2.178293333E0,1.206931238E0,-8.717666441E0,-6.945404613E-1,8.828180880E0
2.188303333E0,-3.602697020E0,-4.730246020E0,-3.969095832E-1,5.959210556E0
2.198312333E0,-8.484795231E0,-2.720978415E-1,-2.103793108E-1,8.491763468E0
2.208321333E0,-1.312146066E1,4.184841133E0,1.999958253E-1,1.377409247E1
2.218331333E0,-1.650047303E1,8.227738182E0,4.045654888E-1,1.844247703E1
2.228340333E0,-1.835860122E1,1.169462075E1,-1.391304034E-1,2.176744704E1
2.238350333E0,-1.875071784E1,1.395688744E1,-9.017295313E-1,2.339224749E1
2.248359333E0,-1.748546340E1,1.513933361E1,-1.732632324E0,2.319359539E1
2.258368333E0,-1.563306314E1,1.509508656E1,-1.772661778E0,2.180359216E1
2.268378333E0,-1.430881381E1,1.383913387E1,-6.542448132E-1,1.991712367E1
2.278387333E0,-1.314010275E1,1.162610542E1,4.545670764E-1,1.755093327E1
2.288397333E0,-1.126576023E1,9.091803458E0,9.476974171E-1,1.450780390E1
2.298406333E0,-9.160205941E0,6.163465235E0,8.157706372E-1,1.107082464E1
2.308415333E0,-7.106570833E0,2.622300804E0,6.497537130E-1,7.602762025E0
2.318425333E0,-5.155416366E0,-1.453641200E0,6.658043200E-1,5.397655606E0
2.328434333E0,-2.856715679E0,-6.020023094E0,2.628134863E-1,6.668626055E0
2.338444333E0,4.642966971E-1,-1.074886169E1,-5.710029741E-1,1.077402633E1
2.348453333E0,5.191475560E0,-1.424128899E1,-1.729083795E0,1.525632529E1
2.358462333E0,1.072596633E1,-1.639409580E1,-2.823032501E0,1.979348993E1
2.368472333E0,1.631779782E1,-1.705242913E1,-3.214643045E0,2.381994532E1
2.378481333E0,1.996197090E1,-1.677114064E1,-2.761356363E0,2.621786661E1
2.388491333E0,2.045929764E1,-1.640155100E1,-2.115654185E0,2.630721817E1
2.398500333E0,1.881118974E1,-1.573139226E1,-1.759458180E0,2.458522432E1
2.408509333E0,1.627234976E1,-1.467227907E1,-1.772704609E0,2.198198402E1
2.418519333E0,1.189422832E1,-1.312796744E1,-3.121448368E-1,1.771760793E1
2.428528333E0,5.864654388E0,-1.069730211E1,1.881302460E0,1.234365191E1
2.438538333E0,-6.626861461E-1,-7.375044571E0,2.691384487E0,7.878704576E0
2.448547333E0,-7.320308785E0,-2.911805806E0,1.495079248E0,8.018777695E0
2.458556333E0,-1.366223572E1,2.530835148E0,-3.783896971E-1,1.389981979E1
2.468566333E0,-1.878833064E1,8.062749637E0,-1.724631579E0,2.051788620E1
2.478575333E0,-2.233822555E1,1.234014635E1,-2.094478640E0,2.560590504E1
2.488585333E0,-2.335571124E1,1.477658638E1,-1.969437249E0,2.770767828E1
2.498594333E0,-2.103351527E1,1.626161193E1,-1.599534639E0,2.663470101E1
2.508603333E0,-1.757662851E1,1.604110875E1,-1.215550253E0,2.382714003E1
2.518613333E0,-1.459014908E1,1.407683956E1,-8.729904664E-1,2.029265815E1
2.528622333E0,-1.235812770E1,1.152725473E1,-2.167491214E-1,1.690112133E1
2.538632333E0,-1.051895268E1,8.599098941E0,3.780768710E-1,1.359175523E1
2.548641333E0,-8.474167916E0,5.445682091E0,9.091138338E-1,1.011402310E1
2.558650333E0,-6.526851561E0,2.173198389E0,1.272981532E0,6.995931998E0
2.568660333E0,-4.552709935E0,-1.613825673E0,1.144828838E0,4.964094491E0
2.578669333E0,-2.112247013E0,-5.452168992E0,5.611146015E-1,5.873890002E0
2.588679333E0,9.594108519E-1,-9.149848768E0,-4.984630014E-1,9.213504601E0
2.598688333E0,5.042491429E0,-1.208074983E1,-1.653572267E0,1.319490574E1
2.608697333E0,9.561534265E0,-1.401858726E1,-2.603917742E0,1.716753080E1
2.618707333E0,1.357847319E1,-1.509868961E1,-3.271523005E0,2.056813615E1
2.628716333E0,1.610240277E1,-1.586379076E1,-3.407278395E0,2.285950084E1
2.638726333E0,1.674383648E1,-1.628448156E1,-3.053322458E0,2.355553391E1
2.648735333E0,1.592343938E1,-1.634911200E1,-2.685703917E0,2.297960815E1
2.658745333E0,1.481322387E1,-1.593581911E1,-2.479922857E0,2.189821795E1
2.668754333E0,1.279634143E1,-1.537970680E1,-1.870165999E0,2.009425928E1
2.678763333E0,9.097370592E0,-1.460827194E1,-2.918384801E-1,1.721188341E1
2.688773333E0,5.333051854E0,-1.251091077E1,1.534689456E0,1.368647515E1
2.698782333E0,1.771368227E0,-9.368000783E0,2.397994595E0,9.830949198E0
2.708792333E0,-1.829905580E0,-5.407249512E0,2.119895171E0,6.089405329E0
2.718801333E0,-6.310282972E0,-7.688357681E-1,1.556093043E0,6.544631784E0
2.728810333E0,-1.169009384E1,3.896351207E0,1.396996445E0,1.240126791E1
2.738820333E0,-1.674271849E1,8.165782254E0,1.340535584E0,1.867607180E1
2.748829333E0,-2.001259375E1,1.179306916E1,1.231988457E0,2.326151724E1
2.758839333E0,-2.050615957E1,1.446892695E1,1.037933403E-1,2.509707553E1
2.768848333E0,-1.876675441E1,1.591634086E1,-1.678854312E0,2.466453992E1
2.778857333E0,-1.666664388E1,1.593409067E1,-2.787185853E0,2.322586206E1
2.788867333E0,-1.465745521E1,1.470687705E1,-3.069100000E0,2.098934493E1
2.798876333E0,-1.297464877E1,1.257180017E1,-2.567250438E0,1.824780658E1
2.808886333E0,-1.138387633E1,9.886655828E0,-1.425680400E0,1.514500473E1
2.818895333E0,-9.853706768E0,6.971075059E0,-2.678882848E-1,1.207324267E1
2.828904333E0,-8.058791656E0,3.684268602E0,5.925486481E-1,8.880826087E0
2.838914333E0,-5.905165653E0,2.662284064E-1,1.107727962E0,6.014060208E0
2.848923333E0,-3.592018835E0,-3.510885209E0,9.023503594E-1,5.103249008E0
2.858933333E0,-1.041176561E0,-7.129926952E0,2.000554669E-1,7.208323602E0
2.868942333E0,1.583360510E0,-1.065966826E1,-7.423050503E-1,1.080215602E1
2.878951208E0,5.057121162E0,-1.358123892E1,-1.564435996E0,1.457641880E1
2.888961208E0,9.646531731E0,-1.535596125E1,-2.167509633E0,1.826360366E1
2.898970208E0,1.423478221E1,-1.618290256E1,-2.422236712E0,2.168830539E1
2.908980208E0,1.704372263E1,-1.654533520E1,-2.333243113E0,2.386798319E1
2.918989208E0,1.760321463E1,-1.669277859E1,-2.008061909E0,2.434243897E1
2.928998208E0,1.674508545E1,-1.619153890E1,-1.815627849E0,2.336365389E1
2.939008208E0,1.527741795E1,-1.525300699E1,-1.808832946E0,2.166392388E1
2.949017208E0,1.251284620E1,-1.407510996E1,-7.430115402E-1,1.884760214E1
2.959027208E0,8.157381560E0,-1.196464517E1,1.503097096E0,1.455867126E1
2.969036208E0,3.039853689E0,-9.018474112E0,2.892210032E0,9.946781621E0
2.979046208E0,-2.826319806E0,-5.352755216E0,2.747686157E0,6.647544755E0
2.989055208E0,-8.539516398E0,-8.189469910E-1,1.465415738E0,8.702956841E0
2.999064208E0,-1.352101377E1,3.794251805E0,-2.278584657E-1,1.404514434E1
3.009074208E0,-1.683688439E1,8.026276460E0,-1.120161043E0,1.868573120E1
3.019083208E0,-1.805472142E1,1.179911050E1,-1.161142423E0,2.159954226E1
3.029093208E0,-1.786804672E1,1.432147186E1,-4.372547865E-2,2.289920439E1
3.039102208E0,-1.657883039E1,1.556942673E1,1.222701325E0,2.277629611E1
3.049111208E0,-1.489058721E1,1.546620349E1,1.603740980E0,2.152916680E1
3.059121208E0,-1.332579161E1,1.396122374E1,1.100351846E0,1.933140617E1
3.069130208E0,-1.184952987E1,1.164266707E1,1.973540533E-1,1.661330802E1
3.079140208E0,-1.034683170E1,8.597708473E0,-6.712814069E-1,1.346952620E1
3.089149208E0,-8.564548329E0,4.951943786E0,-1.305779296E0,9.978892469E0
3.099158208E0,-6.031642681E0,1.229448427E0,-1.624574609E0,6.366435387E0
3.109168208E0,-3.499863208E0,-2.567282013E0,-1.361599009E0,4.549058284E0
3.119177208E0,-9.959340227E-1,-6.517066830E0,-5.436799586E-1,6.615106390E0
3.129187208E0,2.133201972E0,-9.985954413E0,8.238317549E-2,1.021159259E1
3.139196208E0,5.658879760E0,-1.297911370E1,3.617334647E-1,1.416372704E1
3.149205208E0,9.661368456E0,-1.551869511E1,5.794419681E-1,1.828955143E1
3.159215208E0,1.495751210E1,-1.679126442E1,6.141997182E-1,2.249557668E1
3.169224208E0,1.967036792E1,-1.693863998E1,8.300584549E-1,2.597171337E1
3.179234208E0,2.125994285E1,-1.693832891E1,1.366455414E0,2.721689469E1
3.189243208E0,2.007851994E1,-1.662249506E1,1.853268131E0,2.613214319E1
3.199253208E0,1.735754269E1,-1.548268796E1,1.524807662E0,2.330928899E1
3.209262208E0,1.341692163E1,-1.372099088E1,1.191422229E0,1.922755481E1
3.219271208E0,7.865989076E0,-1.148716388E1,2.125287327E0,1.408352102E1
3.229281208E0,1.230071886E0,-7.893269845E0,3.834090639E0,8.860983959E0
3.239290208E0,-6.675490122E0,-3.400802019E0,4.353154989E0,8.664732027E0
3.249300208E0,-1.487098851E1,1.057633258E0,2.317727526E0,1.508763561E1
3.259309208E0,-2.002465539E1,5.644852290E0,-1.049714958E0,2.083154057E1
3.269318208E0,-2.153085370E1,9.626346558E0,-4.123462325E0,2.394258029E1
3.279328208E0,-2.026062095E1,1.221041300E1,-6.295801758E0,2.447905363E1
3.289337208E0,-1.774698714E1,1.335945871E1,-6.645955836E0,2.318619025E1
3.299347208E0,-1.528446267E1,1.324366162E1,-6.279733610E0,2.117650647E1
3.309356208E0,-1.348343839E1,1.224143833E1,-6.062909498E0,1.919413438E1
3.319365208E0,-1.220349575E1,1.062423297E1,-6.066168736E0,1.727998952E1
3.329375208E0,-1.137189187E1,8.504710262E0,-6.361489964E0,1.556015990E1
3.339384208E0,-1.073514997E1,5.880237218E0,-6.399895061E0,1.381228770E1
3.349394208E0,-9.687369854E0,2.933508332E0,-5.736802679E0,1.163449659E1
3.359403208E0,-8.209431719E0,-2.407444865E-1,-4.719469602E0,9.472387259E0
3.369413208E0,-6.429738665E0,-4.239476346E0,-3.597433941E0,8.500366460E0
3.379422208E0,-3.631363580E0,-8.175212644E0,-2.619608746E0,9.321118667E0
3.389431208E0,2.754360169E-1,-1.124050961E1,-1.993172998E0,1.141917948E1
3.399441208E0,4.330963052E0,-1.354326242E1,-1.378256557E0,1.428554476E1
3.409450208E0,8.302981907E0,-1.502897209E1,-6.685976811E-1,1.718303039E1
3.419460208E0,1.229624779E1,-1.560694012E1,9.005969256E-2,1.986913185E1
3.429469208E0,1.590157664E1,-1.569200659E1,6.468572947E-1,2.234989116E1
3.439478208E0,1.803817497E1,-1.540490128E1,6.180717444E-1,2.372906977E1
3.449488208E0,1.801803014E1,-1.501557027E1,-1.136657792E-1,2.345484344E1
3.459497208E0,1.680497146E1,-1.468490087E1,-1.222060031E0,2.235054384E1
3.469507208E0,1.520816937E1,-1.378509391E1,-2.064895676E0,2.062961521E1
3.479516208E0,1.165025325E1,-1.259639706E1,-1.715153535E0,1.724353129E1
3.489525208E0,7.142352870E0,-1.131199300E1,-6.479283585E-1,1.339381205E1
3.499535208E0,2.332608690E0,-8.943266639E0,1.114935971E0,9.309466349E0
3.509544208E0,-4.217735814E0,-5.750068842E0,2.665547395E0,7.612997439E0
3.519554208E0,-9.838318065E0,-2.088406160E0,1.542419475E0,1.017511673E1
3.529563208E0,-1.398104112E1,1.967246590E0,-6.664738262E-1,1.413448822E1
3.539573208E0,-1.848842227E1,5.554110519E0,-7.100958091E-1,1.931771564E1
3.549582208E0,-2.097182948E1,8.002033319E0,1.982457536E-1,2.244748250E1
3.559591208E0,-1.938255276E1,9.383556715E0,5.229928020E-1,2.154084514E1
3.569601208E0,-1.426683080E1,9.360285382E0,2.553718811E-1,1.706524592E1
3.579610208E0,-8.491421295E0,8.326014090E0,2.184323886E-1,1.189430363E1
3.589620208E0,-3.624450417E0,7.254235833E0,8.771077833E-1,8.156586075E0
3.599629208E0,-3.698849219E-1,5.929861953E0,1.817545590E0,6.213175485E0
3.609638208E0,1.330906097E0,4.867181379E0,3.014101382E0,5.877548192E0
3.619648208E0,1.535083559E0,3.871998138E0,3.709532959E0,5.577587820E0
3.629657208E0,1.109165354E0,2.716788300E0,3.520860267E0,4.583409590E0
3.639667208E0,7.345281804E-1,1.832078260E0,2.702420814E0,3.346508726E0
3.649676208E0,3.729123909E-1,9.684620494E-1,1.365948753E0,1.715458652E0
3.659686208E0,3.216672467E-1,1.538291341E-1,1.641158482E-1,3.925139893E-1
3.669695208E0,7.217991574E-1,-3.054427582E-1,-7.915253037E-1,1.113912747E0
3.679704208E0,1.214496219E0,-7.096344638E-1,-1.321409634E0,1.929949626E0
3.689714208E0,1.569405253E0,-9.262001288E-1,-1.144621700E0,2.151984749E0
3.699723208E0,1.848759196E0,-1.008882097E0,-7.571480611E-1,2.238085530E0
3.709733208E0,1.576646444E0,-9.525482672E-1,-3.503180918E-1,1.875069326E0
3.719742208E0,7.136414876E-1,-8.018561643E-1,4.020779371E-2,1.074185341E0
3.729751208E0,-5.418495608E-1,-9.627820641E-1,4.379862732E-1,1.188436883E0
3.739761208E0,-1.513104021E0,-8.338228923E-1,1.015964245E0,2.004227467E0
3.749770208E0,-2.570885506E-1,2.494217545E-1,-4.379038274E-1,5.657433133E-1
3.759780208E0,-1.145313279E0,-6.797540224E-1,-6.298778576E-1,1.473280067E0
3.769789208E0,-1.582376423E0,-6.463985807E-1,-3.279472294E-1,1.740487189E0
3.779798208E0,-8.381091937E-1,5.256997705E-2,-4.713931704E-1,9.630172087E-1
3.789808208E0,-1.814714807E-1,-2.659313679E-2,-4.387034342E-1,4.754995230E-1
3.799817208E0,4.821136748E-1,7.664705694E-2,-2.809370774E-1,5.632353045E-1
3.809827208E0,3.053467908E-1,1.489929020E-1,2.897067314E-1,4.465036817E-1
3.819836208E0,-5.728029663E-1,1.139639872E-1,8.742487872E-1,1.051380983E0
3.829846208E0,-1.139117204E0,3.875534534E-2,7.559090361E-1,1.367658018E0
3.839855208E0,-1.112790481E0,4.303492248E-2,3.224447072E-2,1.114089030E0
3.849864208E0,-7.414156888E-1,-1.779717028E-2,-4.375743368E-1,8.610953856E-1
3.859874208E0,-4.093432488E-1,-2.861334980E-2,-4.515064976E-1,6.101137078E-1
3.869883208E0,-1.967548598E-1,-1.881540442E-1,-4.571224558E-1,5.320482674E-1
3.879892708E0,-1.790285870E-2,-2.010132408E-1,-2.000224301E-1,2.841404721E-1
3.889901708E0,1.081842338E-1,-5.772780597E-2,3.124640948E-1,3.356637284E-1
3.899911708E0,3.309115485E-1,5.142158389E-2,5.374386406E-1,6.332352838E-1
3.909920708E0,3.444118193E-1,1.438602161E-1,4.684666389E-1,5.989793442E-1
3.919929708E0,1.567231404E-1,1.924260199E-1,3.739516604E-1,4.488092693E-1
3.929939708E0,2.171863469E-1,8.122367263E-2,1.650522798E-1,2.846215898E-1
3.939948708E0,4.683848510E-1,1.413856745E-2,9.005209118E-2,4.771725546E-1
3.949958708E0,5.352784599E-1,6.942048311E-2,1.318547130E-2,5.399222997E-1
3.959967708E0,3.558729467E-1,1.640103060E-1,-2.809496489E-1,4.821593511E-1
3.969976708E0,1.926151042E-1,6.125133812E-2,-4.948171163E-1,5.345056439E-1
3.979986708E0,1.326349508E-1,-1.996824145E-3,-3.346712351E-1,3.600011848E-1
3.989995708E0,5.341299936E-2,-3.665151715E-2,2.831631124E-2,7.069721135E-2
4.000005708E0,-3.012748629E-2,-8.482438803E-2,6.048634690E-1,6.115248632E-1
4.010014708E0,-3.298896745E-2,-8.180897892E-2,1.168600547E0,1.171925006E0
4.020024708E0,1.936689918E-1,-7.614244223E-3,1.041239419E0,1.059124725E0
4.030033708E0,4.325352064E-1,-4.253615499E-2,5.464325354E-1,6.982009345E-1
4.040042708E0,5.355977178E-1,-4.329336941E-2,2.815837795E-1,6.066536541E-1
4.050052708E0,5.156725265E-1,8.719484925E-2,-6.838874191E-2,5.274448941E-1
4.060061708E0,2.254092132E-1,5.629465342E-2,-4.254021880E-1,4.847116906E-1
4.070071708E0,-3.689441049E-1,4.880086184E-2,-1.119806117E0,1.180028396E0
4.080080708E0,-1.333008463E0,1.554710323E-1,-1.379334784E0,1.924486230E0
4.090089708E0,-1.717900995E0,1.794066095E-1,3.231630376E-1,1.757215101E0