"Time (s)","Linear Acceleration x (m/s^2)","Linear Acceleration y (m/s^2)","Linear Acceleration z (m/s^2)","Absolute acceleration (m/s^2)"
1.924804167E-2,2.739067508E-1,4.544438463E-1,-4.138483822E-2,5.322187731E-1
2.921204167E-2,1.824362347E-1,5.991086394E-1,-7.850837186E-2,6.311716929E-1
3.917604167E-2,1.622379053E-1,8.396566594E-1,-2.345196868E-1,8.867603549E-1
4.914004168E-2,1.897351313E-1,1.154968933E0,-3.642873824E-2,1.171016528E0
5.910404168E-2,3.244776744E-1,1.590127493E0,4.289447236E-1,1.678625861E0
6.906804167E-2,2.503040628E-1,2.072274277E0,6.971610372E-1,2.200683147E0
7.903204167E-2,2.107904432E-1,2.765793230E0,8.606433396E-1,2.904264409E0
8.899604167E-2,3.061322911E-1,3.571139597E0,1.333894170E0,3.824399124E0
9.896004167E-2,6.858335917E-1,4.512061846E0,2.015372098E0,4.989067499E0
1.089240417E-1,1.200120328E0,5.563637388E0,2.526050956E0,6.226980265E0
1.188880417E-1,1.739499148E0,6.656647469E0,2.878733370E0,7.458144450E0
1.288520417E-1,2.265957595E0,7.635266132E0,3.024777521E0,8.519456073E0
1.388160417E-1,2.844109959E0,8.615351277E0,3.128455086E0,9.596898995E0
1.487800417E-1,3.735429108E0,9.402017545E0,3.379517570E0,1.066641943E1
1.587440417E-1,4.455910449E0,9.690688734E0,3.492882217E0,1.122340466E1
1.687080417E-1,4.601351752E0,9.441562264E0,3.276753339E0,1.100239285E1
1.786720417E-1,4.190697996E0,8.659374964E0,3.094831842E0,1.010567705E1
1.886360417E-1,3.790011112E0,7.314972616E0,3.016013714E0,8.773217615E0
1.986000417E-1,3.421797032E0,5.579931824E0,2.940785776E0,7.175831315E0
2.085640417E-1,2.879057890E0,3.660770397E0,2.504656579E0,5.288054350E0
2.185280417E-1,2.145311409E0,1.399486628E0,1.915135034E0,3.198228582E0
2.284920417E-1,1.204896992E0,-1.027994306E0,1.510711194E0,2.188789018E0
2.384560417E-1,4.171896274E-1,-3.436959447E0,1.138551267E0,3.644590020E0
2.484200417E-1,-7.851743504E-2,-5.736101598E0,3.484097799E-1,5.747209402E0
2.583840417E-1,-7.072081617E-1,-7.910741910E0,-6.907666683E-1,7.972273173E0
2.683480417E-1,-1.607831838E0,-1.011467385E1,-1.503119169E0,1.035138240E1
2.783120417E-1,-2.870335306E0,-1.245036519E1,-2.049469990E0,1.294027610E1
2.882760417E-1,-4.032524381E0,-1.457458262E1,-2.485725049E0,1.532509512E1
2.982400417E-1,-4.749723972E0,-1.618914505E1,-2.806674038E0,1.710338312E1
3.082040417E-1,-4.858899967E0,-1.741399288E1,-3.168816662E0,1.835476658E1
3.181680417E-1,-4.922367400E0,-1.842923441E1,-3.561184713E0,1.940485554E1
3.281320417E-1,-5.013843580E0,-1.936253306E1,-3.632985013E0,2.032842577E1
3.380960417E-1,-5.367708886E0,-2.023200701E1,-3.343312780E0,2.119726744E1
3.480600417E-1,-5.884633155E0,-2.078647041E1,-2.568159095E0,2.175549817E1
3.580240417E-1,-5.934643221E0,-2.076204776E1,-1.406850611E0,2.163935872E1
3.679880417E-1,-5.196524046E0,-1.993967897E1,-5.691679351E-1,2.061355408E1
3.779520417E-1,-4.037073222E0,-1.827216651E1,-3.201467514E-2,1.871285799E1
3.879160417E-1,-2.174623501E0,-1.569016354E1,5.389507306E-1,1.584931189E1
3.978790417E-1,-3.358557348E-1,-1.234102577E1,7.892051286E-1,1.237079467E1
4.078430417E-1,9.089752547E-1,-8.640765615E0,6.327405082E-1,8.711453781E0
4.178070417E-1,1.965563761E0,-4.165473985E0,1.014486507E0,4.716333034E0
4.277710417E-1,3.602866589E0,1.340920331E0,2.793052949E0,4.751826993E0
4.377350417E-1,6.504941459E0,8.089927495E0,5.488830450E0,1.174259128E1
4.476990417E-1,9.041528513E0,1.543572780E1,8.124997340E0,1.964755742E1
4.576630417E-1,1.098727255E1,2.159768504E1,1.002131253E1,2.622225890E1
4.676270417E-1,1.203244715E1,2.648511766E1,1.061317354E1,3.096579879E1
4.775906250E-1,1.205400232E1,2.976354857E1,1.067107735E1,3.383843506E1
4.875546250E-1,1.162439803E1,3.110310825E1,1.085840694E1,3.493472447E1
4.975186250E-1,1.091300590E1,3.083780838E1,1.102679739E1,3.452034740E1
5.074826250E-1,1.026622549E1,2.927320107E1,1.126285416E1,3.300253885E1
5.174466250E-1,9.976345099E0,2.656313589E1,1.168131717E1,3.068518895E1
5.274106250E-1,9.566043053E0,2.286338503E1,1.155577745E1,2.734555809E1
5.373746250E-1,8.875357077E0,1.870354250E1,1.094069363E1,2.341566233E1
5.473386250E-1,8.335353262E0,1.406218644E1,1.037325761E1,1.936046680E1
5.573026250E-1,7.820683680E0,9.015270422E0,9.364060929E0,1.516983293E1
5.672666250E-1,7.059925840E0,4.031378034E0,7.776764658E0,1.125045023E1
5.772306250E-1,5.759863513E0,-9.300353175E-1,5.991843023E0,8.363203704E0
5.871946250E-1,4.235182151E0,-5.860114025E0,4.616541649E0,8.578470787E0
5.971586250E-1,2.765400589E0,-1.046180199E1,3.522590750E0,1.138004336E1
6.071226250E-1,1.474445593E0,-1.453669501E1,2.190403236E0,1.477455102E1
6.170866250E-1,4.688388142E-1,-1.817364911E1,1.083711255E0,1.821196754E1
6.270506250E-1,-7.283888233E-1,-2.174840989E1,-2.028948748E-1,2.176154979E1
6.370146250E-1,-2.448129499E0,-2.530031507E1,-2.457445575E0,2.553699903E1
6.469786250E-1,-4.541788798E0,-2.852341494E1,-4.896173043E0,2.929480425E1
6.569426250E-1,-6.744102520E0,-3.138970368E1,-6.375118654E0,3.273283602E1
6.669066250E-1,-8.583454131E0,-3.352521677E1,-6.094047675E0,3.513905606E1
6.768706250E-1,-9.728350650E0,-3.445231853E1,-4.809068241E0,3.612104921E1
6.868346250E-1,-9.165168473E0,-3.372753277E1,-3.156654453E0,3.509289454E1
6.967986250E-1,-7.170057562E0,-3.148324510E1,-1.553903407E0,3.232675460E1
7.067626250E-1,-4.438323486E0,-2.816042213E1,-5.005674143E-1,2.851242988E1
7.167266250E-1,-2.242649570E0,-2.424976220E1,-2.462789492E-1,2.435448824E1
7.266906250E-1,-4.738574794E-1,-2.020080159E1,-2.135812096E-1,2.020748730E1
7.366546250E-1,1.325039586E0,-1.596946165E1,4.378424317E-1,1.603031943E1
7.466186250E-1,3.073860219E0,-1.150965929E1,1.698368225E0,1.203350856E1
7.565826250E-1,4.027933732E0,-6.277911617E0,3.340901388E0,8.173007189E0
7.665466250E-1,5.143260005E0,1.091224927E-1,5.451093104E0,7.495295006E0
7.765106250E-1,7.605705534E0,7.683275281E0,7.697515005E0,1.327144351E1
7.864746250E-1,1.122068755E1,1.641473647E1,9.336824598E0,2.196642202E1
7.964386250E-1,1.441371520E1,2.453367961E1,1.027459988E1,3.025266969E1
8.064026250E-1,1.545281570E1,2.994832760E1,1.007281129E1,3.517319102E1
8.163666250E-1,1.483546785E1,3.282609092E1,9.676356039E0,3.729980184E1
8.263306250E-1,1.371003671E1,3.408178750E1,9.917055502E0,3.805103593E1
8.362946250E-1,1.343950709E1,3.430515581E1,1.050664429E1,3.831257809E1
8.462586250E-1,1.378885484E1,3.312164194E1,1.078304802E1,3.746264549E1
8.562216250E-1,1.325920702E1,3.022094351E1,1.055887864E1,3.464970296E1
8.661856250E-1,1.199464607E1,2.550743514E1,9.669960939E0,2.979947862E1
8.761496250E-1,1.061502477E1,2.011218119E1,8.792780943E0,2.438219801E1
8.861136250E-1,9.207388294E0,1.445131864E1,7.855888596E0,1.885024125E1
8.960776250E-1,8.058904508E0,9.002148101E0,6.732551930E0,1.383155334E1
9.060416250E-1,6.796696470E0,3.558837640E0,5.948559009E0,9.708025677E0
9.160056250E-1,5.137391739E0,-1.736081012E0,5.513143757E0,7.733144590E0
9.259696250E-1,3.595104411E0,-6.476678942E0,4.501308231E0,8.667982559E0
9.359336250E-1,2.274206408E0,-1.064073264E1,3.200638379E0,1.134201446E1
9.458976250E-1,1.294660961E0,-1.422517874E1,2.299953160E0,1.446795223E1
9.558616250E-1,6.436997983E-1,-1.758493506E1,1.079594669E0,1.762979907E1
9.658256250E-1,-3.913430339E-1,-2.091472557E1,-5.926316786E-1,2.092677967E1
9.757896250E-1,-2.013671728E0,-2.432323130E1,-2.104490243E0,2.449700663E1
9.857536250E-1,-3.833401545E0,-2.741114121E1,-3.270831864E0,2.787048566E1
9.957176250E-1,-5.532959971E0,-2.976162133E1,-3.907311813E0,3.052269378E1
1.005681625E0,-7.042942017E0,-3.140521985E1,-4.379860393E0,3.248190332E1
1.015645625E0,-8.423686565E0,-3.214104283E1,-5.109480640E0,3.361713732E1
1.025609625E0,-8.699181638E0,-3.157369919E1,-5.227854012E0,3.316481116E1
1.035573625E0,-7.533539198E0,-2.977735502E1,-4.567867087E0,3.105334916E1
1.045537625E0,-5.674628066E0,-2.697318475E1,-3.938834152E0,2.784364405E1
1.055501625E0,-3.636621396E0,-2.370246048E1,-3.668662384E0,2.425882791E1
1.065465625E0,-1.596091360E0,-2.019785693E1,-3.317121931E0,2.053056819E1
1.075429625E0,2.972741979E-1,-1.646462726E1,-1.848545188E0,1.657074054E1
1.085393625E0,2.056887768E0,-1.277186499E1,5.800724441E-1,1.294943268E1
1.095357625E0,3.483439841E0,-8.423036354E0,2.885540698E0,9.560765642E0
1.105321625E0,4.729730003E0,-2.737092172E0,5.119723792E0,7.488230176E0
1.115285625E0,6.984002668E0,4.216131923E0,7.565479029E0,1.112602960E1
1.125249625E0,9.775643515E0,1.189616960E1,9.892129991E0,1.830126479E1
1.135213625E0,1.212403092E1,1.958222933E1,1.215200400E1,2.604087234E1
1.145177625E0,1.316079722E1,2.500956110E1,1.281390413E1,3.103032176E1
1.155141625E0,1.232831743E1,2.840529651E1,1.158414463E1,3.306116585E1
1.165105625E0,1.162396768E1,3.059066763E1,1.033147223E1,3.431683099E1
1.175069625E0,1.196250977E1,3.166102384E1,9.379953661E0,3.512129840E1
1.185033625E0,1.240028613E1,3.196378098E1,8.103835098E0,3.522956902E1
1.194997625E0,1.268677280E1,3.108471291E1,6.785410175E0,3.425281554E1
1.204961625E0,1.287028883E1,2.868230952E1,5.788023119E0,3.196592601E1
1.214925625E0,1.264932723E1,2.482489667E1,5.208534812E0,2.834448463E1
1.224889625E0,1.167651894E1,2.011360090E1,4.549518524E0,2.369802005E1
1.234853625E0,1.057909012E1,1.516879188E1,4.478509353E0,1.902804354E1
1.244817625E0,9.433505970E0,9.864432900E0,5.320617750E0,1.464947250E1
1.254781625E0,7.997404663E0,4.460528580E0,6.458944337E0,1.120592515E1
1.264745625E0,6.139700396E0,-8.405670708E-1,7.159956497E0,9.469289888E0
1.274709625E0,4.052098812E0,-5.819167728E0,7.079848473E0,1.002030300E1
1.284673625E0,2.314523545E0,-9.950132031E0,6.233927692E0,1.196762304E1
1.294637625E0,1.218760886E0,-1.305243077E1,4.852884352E0,1.397861987E1
1.304601625E0,6.847992924E-1,-1.554518300E1,3.203982401E0,1.588669783E1
1.314565625E0,4.935254663E-2,-1.797976128E1,1.380498379E0,1.803274875E1
1.324529625E0,-9.178450423E-1,-2.077078817E1,-5.437021780E-1,2.079816561E1
1.334493625E0,-2.595831920E0,-2.387611109E1,-2.588729600E0,2.415592153E1
1.344457625E0,-4.543267266E0,-2.674877330E1,-4.016303912E0,2.742751989E1
1.354421625E0,-6.271308357E0,-2.907094120E1,-4.602822912E0,3.009376861E1
1.364385625E0,-7.469052011E0,-3.067889977E1,-4.826188889E0,3.194172394E1
1.374349625E0,-7.978302979E0,-3.150163576E1,-5.143989152E0,3.290086623E1
1.384313625E0,-7.775094109E0,-3.121904918E1,-5.238714046E0,3.259639927E1
1.394277625E0,-6.655599064E0,-2.996122188E1,-5.175702696E0,3.112490504E1
1.404241625E0,-5.073765846E0,-2.781562352E1,-5.058382992E0,2.872349648E1
1.414205625E0,-2.787913831E0,-2.501015518E1,-4.709086701E0,2.560187148E1
1.424169625E0,-9.916468441E-2,-2.157491832E1,-4.058795629E0,2.195360463E1
1.434133625E0,2.047886125E0,-1.778584539E1,-3.027800531E0,1.815757996E1
1.444097625E0,3.560171975E0,-1.411723680E1,-1.200559819E0,1.460864619E1
1.454061625E0,4.083096072E0,-9.957304226E0,1.303936984E0,1.084065647E1
1.464024625E0,4.850199310E0,-3.901611362E0,4.473338952E0,7.665361436E0
1.473988375E0,7.611206594E0,4.389772593E0,8.448186983E0,1.218902919E1
1.483952375E0,1.156995812E1,1.384155579E1,1.168974184E1,2.149657326E1
1.493916375E0,1.444661514E1,2.242047950E1,1.362086667E1,2.994846572E1
1.503880375E0,1.468901380E1,2.816712538E1,1.472201666E1,3.501273844E1
1.513844375E0,1.299829725E1,3.111820109E1,1.577647663E1,3.723164494E1
1.523808375E0,1.152005681E1,3.283681705E1,1.684838470E1,3.866311330E1
1.533772375E0,1.134959761E1,3.400048547E1,1.801086146E1,4.011530267E1
1.543736375E0,1.160342407E1,3.360625216E1,1.863661059E1,4.014153570E1
1.553700375E0,1.128349834E1,3.160665175E1,1.808876508E1,3.812481072E1
1.563664375E0,1.099217135E1,2.818646797E1,1.643622850E1,3.443042862E1
1.573628375E0,1.076048128E1,2.387874000E1,1.416403090E1,2.977586191E1
1.583592375E0,1.058022214E1,1.920515408E1,1.219533186E1,2.508994147E1
1.593556375E0,1.008183706E1,1.407056433E1,1.092794553E1,2.047056942E1
1.603520375E0,9.222999775E0,8.653381568E0,1.008003144E1,1.617256229E1
1.613484375E0,8.199399067E0,3.119017096E0,8.747724053E0,1.238874848E1
1.623448375E0,6.969245465E0,-2.017282968E0,7.497978771E0,1.043357554E1
1.633412375E0,5.528155314E0,-6.912986480E0,6.537488231E0,1.100402815E1
1.643376375E0,4.103480928E0,-1.132957557E1,5.191445155E0,1.312055415E1
1.653340375E0,2.861359538E0,-1.479108280E1,3.541918722E0,1.547606853E1
1.663304375E0,2.034875486E0,-1.757063979E1,1.942685945E0,1.779444097E1
1.673268375E0,1.156837411E0,-2.038845979E1,1.425458352E-1,2.042175029E1
1.683232375E0,4.238763571E-2,-2.346099620E1,-2.094992903E0,2.355438674E1
1.693196375E0,-1.711921194E0,-2.666228362E1,-4.610504984E0,2.711207846E1
1.703160375E0,-3.691344318E0,-2.981812180E1,-6.745149171E0,3.079356180E1
1.713124375E0,-5.622739289E0,-3.251528334E1,-8.046075132E0,3.396466065E1
1.723088375E0,-7.280358853E0,-3.440871234E1,-8.670687572E0,3.622352734E1
1.733052375E0,-8.432103631E0,-3.517962328E1,-8.108751436E0,3.707368495E1
1.743016375E0,-8.274932814E0,-3.457881018E1,-6.017863133E0,3.606082782E1
1.752980375E0,-6.649086435E0,-3.250466012E1,-3.017283729E0,3.331467066E1
1.762944375E0,-4.835717219E0,-2.955917903E1,-6.548518272E-1,2.995927330E1
1.772908375E0,-2.338861118E0,-2.594532844E1,1.149835078E0,2.607589807E1
1.782872375E0,3.698802441E-2,-2.154633479E1,2.750289338E0,2.172118787E1
1.792836375E0,1.011642275E0,-1.774606796E1,3.927180067E0,1.820354612E1
1.802800375E0,1.699199992E0,-1.378256557E1,5.033947477E0,1.477115505E1
1.812764375E0,3.181923780E0,-7.628455296E0,7.059646928E0,1.086998546E1
1.822728375E0,5.672435360E0,4.363046139E-1,9.498162727E0,1.107167466E1
1.832692375E0,8.724076159E0,1.040325148E1,1.118065985E1,1.758818641E1
1.842656375E0,1.197160336E1,2.026590683E1,1.095107595E1,2.596059189E1
1.852620375E0,1.451897443E1,2.821111749E1,9.426850085E0,3.309884094E1
1.862584375E0,1.573579054E1,3.352493376E1,7.813662343E0,3.784956547E1
1.872548375E0,1.504073903E1,3.593233068E1,6.629603512E0,3.951338838E1
1.882512375E0,1.338014499E1,3.597476041E1,6.762820042E0,3.897367575E1
1.892476375E0,1.243514723E1,3.480939162E1,7.745286173E0,3.776660019E1
1.902440375E0,1.206645455E1,3.236220089E1,7.647383902E0,3.537504562E1
1.912404375E0,1.111275146E1,2.849275916E1,6.481721581E0,3.126249005E1
1.922368375E0,9.696731247E0,2.365867653E1,5.562817023E0,2.616685891E1
1.932332375E0,8.510137063E0,1.844316833E1,5.223976139E0,2.097290675E1
1.942296375E0,7.495122406E0,1.335828225E1,5.018872771E0,1.611861186E1
1.952260375E0,6.456900735E0,8.403357550E0,4.992318810E0,1.171457350E1
1.962224375E0,5.238228142E0,3.657077295E0,4.921628312E0,8.064469831E0
1.972188375E0,3.978577092E0,-8.491197932E-1,4.426086141E0,6.011681847E0
1.982152375E0,2.684079853E0,-5.059974019E0,3.391402620E0,6.656518118E0
1.992116375E0,1.578401779E0,-8.803650917E0,1.890439319E0,9.141629092E0
2.002080375E0,5.442676038E-1,-1.215343306E1,5.977596867E-1,1.218029059E1
2.012044375E0,-5.266899964E-1,-1.545168953E1,-6.016621184E-1,1.547236598E1
2.022008375E0,-1.645464957E0,-1.915516273E1,-2.004278176E0,1.932989770E1
2.031972375E0,-3.549032152E0,-2.334560491E1,-3.370966601E0,2.385322439E1
2.041936375E0,-6.349664555E0,-2.773999797E1,-3.962373873E0,2.873197059E1
2.051900375E0,-9.151956689E0,-3.144250872E1,-3.745940355E0,3.296091223E1
2.061864375E0,-1.075434638E1,-3.346098861E1,-3.291228122E0,3.530050860E1
2.071828375E0,-1.031071111E1,-3.331033627E1,-2.839609650E0,3.498503464E1
2.081792375E0,-8.331084795E0,-3.129920516E1,-2.436153524E0,3.248048739E1
2.091755375E0,-5.520033531E0,-2.817547754E1,-2.278575155E0,2.880139250E1
2.101719375E0,-2.824831982E0,-2.410484949E1,-2.439909775E0,2.439214227E1
2.111683375E0,-2.106035516E-1,-1.955398026E1,-2.570600308E0,1.972334869E1
2.121647375E0,2.240070071E0,-1.449960378E1,-2.099327590E0,1.482105259E1
2.131611375E0,4.333889583E0,-9.218386906E0,-1.249101503E0,1.026262689E1
2.141575375E0,5.972192286E0,-3.865277349E0,-3.904045558E-1,7.124595806E0
2.151539375E0,7.253786182E0,1.717387463E0,6.857871795E-1,7.485795731E0
2.161503375E0,8.327889876E0,7.740946369E0,2.160073436E0,1.157332786E1
2.171467375E0,9.560592279E0,1.358982965E1,3.830461565E0,1.705171048E1
2.181431375E0,1.082159871E1,1.798197036E1,5.047870867E0,2.158562617E1
2.191395375E0,1.078507116E1,2.066890863E1,5.191227638E0,2.388452194E1
2.201359375E0,1.024807574E1,2.249943094E1,5.217095135E0,2.526787547E1
2.211323375E0,1.115582673E1,2.459220088E1,6.587355040E0,2.779607995E1
2.221287375E0,1.221061649E1,2.636029832E1,8.750711396E0,3.034039275E1
2.231251375E0,1.235159286E1,2.670636461E1,1.007587991E1,3.110168987E1
2.241215375E0,1.190598591E1,2.578420491E1,1.024446450E1,3.019150172E1
2.251179375E0,1.104770937E1,2.352453439E1,9.639221542E0,2.771949120E1
2.261143375E0,9.888587748E0,2.009206443E1,8.888268313E0,2.409308063E1
2.271107375E0,8.622065050E0,1.609232100E1,8.796860545E0,2.026542762E1
2.281071375E0,7.463816414E0,1.173703880E1,8.586299971E0,1.634598368E1
2.291035375E0,6.269976946E0,7.305044628E0,7.874324867E0,1.243709291E1
2.300999375E0,5.141862520E0,2.958316898E0,6.690856605E0,8.941920999E0
2.310963375E0,4.227090774E0,-1.033699434E0,5.186722358E0,6.770444576E0
2.320927375E0,3.409403858E0,-4.605132562E0,3.729804379E0,6.836864872E0
2.330891375E0,2.449734559E0,-8.022113242E0,1.939317803E0,8.609091347E0
2.340855375E0,1.276836017E0,-1.126182856E1,-2.203705944E-2,1.133400099E1
2.350819375E0,-2.545792910E-1,-1.434819948E1,-1.531382856E0,1.443193585E1
2.360783375E0,-2.161016884E0,-1.743422425E1,-2.462901027E0,1.773944900E1
2.370747375E0,-4.216424283E0,-2.069248226E1,-2.933429979E0,2.132046124E1
2.380711375E0,-6.394366518E0,-2.406929608E1,-3.171217529E0,2.510528943E1
2.390675375E0,-8.331381834E0,-2.694699858E1,-3.100413594E0,2.837543340E1
2.400639375E0,-9.696801413E0,-2.881860578E1,-2.662169459E0,3.052256776E1
2.410603375E0,-1.001427131E1,-2.945845723E1,-2.040917414E0,3.118095053E1
2.420567375E0,-9.006265710E0,-2.867041862E1,-1.458563386E0,3.008709247E1
2.430531375E0,-7.162325789E0,-2.647738531E1,-1.215129034E0,2.745591707E1
2.440495375E0,-4.687046498E0,-2.345921163E1,-1.370789663E0,2.396209673E1
2.450459375E0,-2.226402643E0,-1.983788831E1,-1.539078376E0,2.002167434E1
2.460423375E0,-1.329474114E-1,-1.581371287E1,-1.306948008E0,1.586818524E1
2.470387375E0,1.818982835E0,-1.127338500E1,-1.710427523E-1,1.142047125E1
2.480351750E0,3.643353880E0,-5.828885801E0,1.439137182E0,7.022894916E0
2.490315750E0,5.250534192E0,9.581615943E-1,3.181942492E0,6.213770270E0
2.500279750E0,7.002408534E0,8.495087500E0,4.708757502E0,1.197383122E1
2.510243750E0,8.990745445E0,1.533312554E1,5.273282200E0,1.854038154E1
2.520207750E0,1.047623994E1,2.028803503E1,5.430487517E0,2.347011213E1
2.530171750E0,1.080768351E1,2.307942562E1,5.668811256E0,2.610749568E1
2.540135750E0,9.911354467E0,2.395849602E1,5.720576656E0,2.655126129E1
2.550099750E0,8.758802773E0,2.326834682E1,5.715106001E0,2.551068455E1
2.560063750E0,7.765285989E0,2.126676538E1,5.605324527E0,2.332369266E1
2.570027750E0,6.677466481E0,1.829905317E1,5.522013398E0,2.024688958E1
2.579991750E0,5.456206495E0,1.463676192E1,5.364553728E0,1.651615650E1
2.589955750E0,4.099486402E0,1.084725162E1,4.868627395E0,1.257665254E1
2.599919750E0,3.111723571E0,7.222100705E0,4.009113007E0,8.826921846E0
2.609883750E0,2.266162540E0,3.948610112E0,2.996631364E0,5.450395766E0
2.619847750E0,1.478673861E0,1.136099968E0,1.946336362E0,2.695445187E0
2.629811750E0,8.105305088E-1,-1.177835054E0,1.040198615E0,1.768125640E0
2.639775750E0,1.955608949E-1,-3.064311131E0,3.490574321E-1,3.090321643E0
2.649739750E0,-4.626765433E-1,-4.468753273E0,-2.183838567E-1,4.497945855E0
2.659703750E0,-8.690346788E-1,-5.521229287E0,-6.364112440E-1,5.625318958E0
2.669667750E0,-1.314653907E0,-6.290084935E0,-8.999499312E-1,6.488712759E0
2.679631750E0,-1.891659341E0,-6.842124074E0,-9.962301841E-1,7.168368816E0
2.689595750E0,-2.449559728E0,-7.217279676E0,-8.105077046E-1,7.664619463E0
2.699559750E0,-2.685424128E0,-7.297327473E0,-5.073058918E-1,7.792294288E0
2.709523750E0,-2.514985685E0,-6.983541908E0,-5.270361516E-1,7.441288711E0
2.719487750E0,-2.345383541E0,-6.382135897E0,-9.840247062E-1,6.870282904E0
2.729451750E0,-2.035079700E0,-5.384556468E0,-1.257104295E0,5.891969870E0
2.739415750E0,-1.429677849E0,-4.266343718E0,-1.076534090E0,4.626509820E0
2.749379750E0,-9.904904111E-1,-3.291074340E0,-1.046743988E0,3.592758625E0
2.759343750E0,-8.768945061E-1,-2.177350497E0,-1.350660038E0,2.708150974E0
2.769307750E0,-5.261748567E-1,-1.013934676E0,-1.559360613E0,1.933010354E0
2.779271750E0,7.744593278E-2,-9.721814632E-2,-1.370848719E0,1.376472104E0
2.789235750E0,5.508230634E-1,6.207474303E-1,-1.054686553E0,1.342049606E0
2.799199750E0,7.023319492E-1,1.243160732E0,-9.204660568E-1,1.698816216E0
2.809163750E0,1.022405830E0,1.834665068E0,-9.952405429E-1,2.324180141E0
2.819127750E0,1.094391486E0,2.163166906E0,-9.522260857E-1,2.604557219E0
2.829091750E0,1.236392142E0,2.356482287E0,-5.656546721E-1,2.720595432E0
2.839054750E0,1.383498001E0,2.431527207E0,-1.761388931E-1,2.803108308E0
2.849019750E0,1.195478735E0,2.375835401E0,2.377887189E-2,2.659761022E0
2.858982750E0,9.773258436E-1,2.228132395E0,7.852459788E-2,2.434318362E0
2.868946750E0,6.992832841E-1,1.955916440E0,1.885338208E-1,2.085701616E0
2.878910750E0,5.138838632E-1,1.572068952E0,3.127637646E-1,1.683240502E0
2.888874750E0,5.000046198E-1,1.379930615E0,4.866020706E-1,1.546284158E0
2.898838750E0,5.032957617E-1,1.265935053E0,7.321164232E-1,1.546574485E0
2.908802750E0,2.144060325E-1,9.217433810E-1,8.339556241E-1,1.261373375E0
2.918766750E0,-3.439306665E-2,5.763682330E-1,9.738090357E-1,1.132116275E0
2.928730750E0,-9.068779316E-2,3.430070257E-1,1.151050129E0,1.204489309E0
2.938694750E0,3.292859495E-2,2.313830942E-1,1.302674863E0,1.323474301E0
2.948658750E0,2.742950790E-2,1.780260819E-1,1.404005063E0,1.415512586E0
2.958622750E0,4.795535445E-2,6.588291764E-2,1.405836704E0,1.408196404E0
2.968586750E0,1.303578258E-2,-8.872565031E-2,1.006908662E0,1.010894270E0
2.978550750E0,-2.072216682E-1,-1.997911727E-1,6.829170737E-1,7.411025988E-1
2.988514750E0,-9.052673891E-2,-1.717754084E-1,6.872431362E-1,7.141463503E-1
2.998478750E0,-5.957165234E-2,-5.772897542E-2,4.316601706E-1,4.395587779E-1
3.008442750E0,-1.067588288E-1,-5.588183999E-2,-9.880420357E-2,1.558284256E-1
3.018406750E0,-2.680648707E-2,-2.080556273E-2,-4.309789699E-1,4.323127707E-1
3.028370750E0,3.467998222E-2,-4.227887750E-2,-2.988488531E-1,3.038105358E-1
3.038334750E0,-2.741620548E-2,-2.712909257E-1,-2.721060276E-2,2.740270637E-1
3.048298750E0,-1.631981277E-1,-4.608038628E-1,7.614975125E-2,4.947449985E-1
3.058262750E0,-2.380400761E-1,-5.288292003E-1,-9.554642737E-2,5.877520912E-1
3.068226750E0,-2.017486013E-1,-4.850429106E-1,-2.849134764E-1,5.976159404E-1
3.078190750E0,-1.531966116E-1,-4.529247397E-1,-3.751743132E-1,6.077547095E-1
3.088154750E0,-8.926300943E-2,-4.308462381E-1,-4.870066980E-1,6.563321489E-1
3.098118750E0,1.117322512E-1,-2.235858321E-1,-8.066885957E-1,8.445242511E-1
3.108082750E0,-8.393400326E-2,-2.592567712E-1,-1.327793332E0,1.355468230E0
3.118046750E0,-3.745022488E-1,-3.395150685E-1,-2.492407247E0,2.543150861E0
3.128010750E0,-4.605772101E-1,-3.828201324E-1,-1.519955935E0,1.633691728E0
3.137974750E0,7.454695635E-2,-4.302305263E-1,5.232717142E-1,6.815195091E-1
3.147938750E0,4.748830079E-1,-5.214991307E-1,1.556718841E0,1.709049082E0
3.157902750E0,2.317255948E-1,-7.730580425E-1,1.372074588E0,1.591824162E0
3.167866750E0,3.822984146E-1,-4.828712547E-1,9.004197550E-1,1.090904424E0
3.177830750E0,6.676716283E-3,-4.471611392E-1,-3.445805115E-1,5.645647809E-1
3.187794750E0,-6.043220899E-1,-6.830261242E-1,-8.213458112E-1,1.227329954E0
3.197758750E0,-8.130986059E-1,-5.055245376E-1,-8.119733092E-1,1.255382434E0
3.207722750E0,-7.216401862E-1,-2.705623627E-1,-6.153337857E-1,9.862069855E-1
3.217686750E0,-3.489619032E-1,-2.528324354E-1,-2.534446388E-1,4.999328307E-1
3.227650750E0,-2.245231408E-1,-1.679589307E-1,-4.179531276E-2,2.834919599E-1
3.237614750E0,-9.454165645E-2,-2.633486527E-1,1.365137744E-1,3.113304487E-1
3.247578750E0,2.006191385E-1,-2.568588281E-1,3.851882547E-1,5.045735703E-1
3.257542750E0,2.264946757E-1,-7.539049029E-2,6.208105803E-1,6.651235530E-1
3.267506750E0,6.546447627E-2,-1.645377249E-1,6.465731201E-1,6.703842630E-1
3.277470750E0,-1.218079539E-1,-1.584034109E-1,1.515718165E-1,2.508043735E-1
3.287434750E0,-7.948083691E-2,-2.671943665E-2,8.151691049E-2,1.169450231E-1
3.297398750E0,2.411611737E-1,8.942088425E-2,4.339025778E-1,5.044068330E-1
3.307362750E0,5.753370034E-1,3.856817597E-1,5.937493739E-1,9.123055443E-1
3.317326750E0,3.888032958E-1,3.887772757E-1,1.114795053E-1,5.610200112E-1
3.327290750E0,2.456334896E-2,2.512466705E-1,-4.073904249E-1,4.792652771E-1
3.337254750E0,-2.888400279E-2,2.778731364E-1,-5.719553393E-1,6.365380395E-1
3.347218750E0,1.500253741E-1,4.303205734E-1,-4.477628177E-1,6.388857095E-1
3.357182750E0,2.995155088E-1,3.431912130E-1,-1.656098118E-1,4.846817084E-1
3.367146750E0,-1.664073721E-2,1.154140967E-1,1.076472402E-1,1.586986332E-1
3.377110750E0,-2.854954205E-1,-5.210804701E-2,8.265068561E-2,3.017515858E-1
3.387074750E0,-1.673047004E-1,2.382331073E-2,4.809919596E-3,1.690607827E-1
3.397038750E0,2.949460559E-1,2.444200462E-1,1.340143821E-1,4.058253189E-1
3.407002750E0,6.744207039E-1,4.757136780E-1,1.509935269E-1,8.390147999E-1
3.416966750E0,5.649889666E-1,4.195137495E-1,2.015272111E-2,7.039960586E-1
3.426930750E0,2.169270960E-1,1.418598837E-1,-9.260966331E-2,2.752419687E-1
3.436894750E0,4.733416088E-2,1.027958053E-1,-1.218650374E-1,1.663087121E-1
3.446858750E0,1.030818804E-1,1.064146471E-1,-6.038214952E-2,1.599873594E-1
3.456822750E0,1.615562661E-1,4.894996583E-2,-6.656119466E-2,1.814577607E-1
3.466786750E0,8.957499493E-2,5.666536689E-2,-2.421329078E-1,2.643160770E-1
3.476750542E0,-8.296332892E-2,-9.766370416E-2,-3.911588466E-1,4.116143296E-1
3.486714542E0,-3.146766081E-1,-2.632796556E-1,-4.352260950E-1,5.981298341E-1
3.496678542E0,-2.553551800E-1,-3.208630353E-1,-2.176757589E-1,4.642651090E-1
3.506642542E0,1.805068363E-2,-3.091949165E-1,1.363462517E-1,3.384045270E-1
3.516606542E0,6.472695965E-2,-1.986059421E-1,1.470726764E-1,2.554687294E-1
3.526570542E0,-1.862501176E-1,-1.950139976E-1,-4.815649867E-2,2.739317687E-1
3.536534542E0,-2.477300454E-1,-1.578110880E-1,-1.832455990E-1,3.461985910E-1
3.546498542E0,-1.152925477E-1,-2.244863033E-2,-8.058369488E-2,1.424431270E-1
3.556462542E0,-3.309937019E-2,-2.552952826E-2,1.090935490E-1,1.168277687E-1
3.566426542E0,-1.256654352E-2,-3.072360992E-2,-1.562639147E-2,3.668844959E-2
3.576390542E0,-7.209076032E-2,1.199772638E-1,-1.982399064E-1,2.426740243E-1
3.586354542E0,-1.216449263E-1,1.137511486E-1,-1.008691478E-1,1.947084920E-1
3.596318542E0,-1.915611436E-1,4.440083206E-2,-2.115025610E-2,1.977737065E-1
3.606282542E0,-1.151388025E-1,7.759781420E-2,3.602118731E-2,1.434429871E-1
3.616246542E0,-1.208016847E-1,1.185312474E-1,1.001493555E-1,1.966534949E-1
3.626210542E0,-2.618714999E-1,6.177817225E-2,4.770977139E-2,2.732571084E-1
3.636174542E0,-2.592912332E-1,-1.714520574E-2,-3.156736314E-2,2.617678363E-1
3.646138542E0,-2.008873430E-1,-3.426117539E-2,-2.067019969E-2,2.048336150E-1
3.656102542E0,-2.179340962E-1,-9.892728746E-2,1.692476571E-2,2.399340038E-1
3.666065542E0,-2.569255960E-1,-1.186113542E-1,7.165470421E-2,2.919140487E-1
3.676029542E0,-1.057931977E-1,-1.256765449E-1,2.446802473E-1,2.947120935E-1
3.685993542E0,1.544135999E-1,-4.241628706E-2,4.493152535E-1,4.769977969E-1
3.695957542E0,1.346326520E-1,-7.580739677E-2,5.576682526E-1,5.786765870E-1
3.705921542E0,-2.395468305E-1,-2.023855823E-1,4.476470429E-1,5.465624236E-1
3.715885542E0,-5.437155170E-1,-3.147181964E-1,1.958124349E-1,6.580399807E-1
3.725849542E0,-6.062988143E-1,-3.034851104E-1,-5.671933669E-1,8.839738570E-1
3.735813542E0,-5.998577773E-1,-2.972174799E-1,-1.433306923E0,1.581940681E0
3.745777542E0,-9.153432380E-2,4.080596387E-2,-1.206093478E-1,1.568128627E-1
3.755741542E0,6.611019161E-1,3.365844440E-1,9.084444737E-1,1.172866656E0
3.765705542E0,4.596582105E-1,4.708119571E-2,5.610616842E-1,7.268373429E-1
3.775669542E0,3.015740211E-1,4.053056002E-2,3.517386729E-1,4.650910776E-1
3.785633542E0,7.189636233E-1,3.820857221E-1,6.489248702E-1,1.041154013E0