"Time (s)","Linear Acceleration x (m/s^2)","Linear Acceleration y (m/s^2)","Linear Acceleration z (m/s^2)","Absolute acceleration (m/s^2)"
5.254475900E-2,0.000000000E0,0.000000000E0,0.000000000E0,0.000000000E0
5.745710300E-2,-5.135637522E-2,5.548286438E-2,4.364645481E-2,8.729741424E-2
6.236939400E-2,-2.522900701E-2,3.434276581E-2,2.279446125E-1,2.318936712E-1
6.728173800E-2,3.542137146E-2,-5.628108978E-2,3.307057619E-1,3.373255632E-1
7.219408200E-2,5.500417948E-2,-8.481788635E-2,3.922505379E-1,4.050679178E-1
7.710642600E-2,7.509975135E-2,-6.848621368E-2,4.615386724E-1,4.725973765E-1
8.201876900E-2,4.673999548E-2,-2.387619019E-2,4.577107430E-1,4.607101300E-1
8.693106100E-2,-5.080312490E-3,2.490043640E-2,3.456797600E-1,3.466126624E-1
9.184340500E-2,-5.846023560E-2,5.571746826E-2,1.693234444E-1,1.875965464E-1
9.675574900E-2,-8.420136571E-2,5.175495148E-2,1.729166508E-2,1.003366666E-1
1.016680920E-1,-5.454903841E-2,7.697677612E-2,-1.013113260E-1,1.384377349E-1
1.065804360E-1,-6.330925226E-2,8.982181549E-2,-1.585806608E-1,1.929348231E-1
1.114927280E-1,-4.570806026E-2,1.200771332E-1,-2.219628096E-1,2.564668273E-1
1.164050720E-1,-3.863951564E-2,1.356525421E-1,-2.494047880E-1,2.865263908E-1
1.213174150E-1,1.468276978E-2,1.331081390E-1,-2.277121544E-1,2.641707510E-1
1.262297590E-1,5.812636018E-2,1.246757507E-1,-2.201160192E-1,2.595645941E-1
1.311421030E-1,6.116917729E-2,1.240673065E-1,-2.097476721E-1,2.512537577E-1
1.360543940E-1,4.165700078E-2,1.511220932E-1,-2.055791616E-1,2.585265643E-1
1.409667380E-1,9.611874819E-3,1.364660263E-1,-2.027195692E-1,2.445620335E-1
1.458790820E-1,-1.867672801E-2,1.161661148E-1,-2.283098698E-1,2.568438884E-1
1.507914260E-1,-1.625159383E-2,7.894229889E-2,-1.852715015E-1,2.020433868E-1
1.557037690E-1,1.098003983E-2,7.560825348E-2,-1.356643438E-1,1.556983733E-1
1.606161130E-1,4.608404636E-2,5.653762817E-2,-7.702088356E-2,1.060776095E-1
1.655284050E-1,6.137245893E-2,4.061126709E-2,2.524268627E-2,7.780132994E-2
1.704407490E-1,9.908023477E-2,5.286502838E-2,1.011557579E-1,1.511426197E-1
1.753530920E-1,9.848989546E-2,8.763790131E-2,1.358850002E-1,1.893288001E-1
1.802654360E-1,5.181853473E-2,9.578037262E-2,1.010552645E-1,1.485638139E-1
1.851777800E-1,9.687718749E-2,1.129074097E-1,6.818556786E-2,1.636537329E-1
1.900901240E-1,1.243843436E-1,1.434135437E-1,6.226110458E-2,1.997882744E-1
1.950024670E-1,1.582940370E-1,1.614894867E-1,-1.110553741E-3,2.261351140E-1
1.999147590E-1,1.707724631E-1,1.884374619E-1,-4.155015945E-2,2.576787281E-1
2.048271030E-1,1.880996972E-1,1.776828766E-1,-7.637059689E-2,2.697872658E-1
2.097394470E-1,2.287702411E-1,1.744556427E-1,-8.499503136E-2,2.999912496E-1
2.146517900E-1,2.598376572E-1,1.599521637E-1,-1.217603683E-1,3.285207605E-1
2.195641340E-1,2.862697244E-1,1.623773575E-1,-1.534187794E-1,3.631171755E-1
2.244764780E-1,2.639839053E-1,1.649904251E-1,-1.780290604E-1,3.586135650E-1
2.293888220E-1,2.103925645E-1,1.701173782E-1,-1.958690882E-1,3.340204384E-1
2.343011130E-1,1.422686130E-1,1.450605392E-1,-2.258417606E-1,3.037884447E-1
2.392134570E-1,1.087587103E-1,1.022052765E-1,-2.139660120E-1,2.608751232E-1
2.441258010E-1,9.725332260E-2,6.524944305E-2,-1.354192495E-1,1.790365095E-1
2.490381440E-1,9.316850454E-2,6.897258759E-2,-6.373560429E-2,1.322868676E-1
2.539504880E-1,1.010043994E-1,6.095695496E-2,-1.477181911E-2,1.188942626E-1
2.588628320E-1,9.939857572E-2,2.740097046E-2,3.797483444E-2,1.098771045E-1
2.637751760E-1,1.049965769E-1,6.276130676E-3,1.038880348E-1,1.478390840E-1
2.686875190E-1,9.194643050E-2,6.625175476E-3,1.290451288E-1,1.585896728E-1
2.735998630E-1,8.164143562E-2,-7.146835327E-3,1.096435785E-1,1.368872367E-1
2.785121550E-1,4.812557250E-2,-1.833915710E-2,9.104287624E-2,1.046001947E-1
2.834244990E-1,-1.289322972E-2,1.136779785E-3,5.899846554E-2,6.040154449E-2
2.883368420E-1,-2.372069657E-2,2.486133575E-2,8.182239532E-2,8.874492570E-2
2.932491860E-1,-4.018649459E-3,2.696323395E-2,7.162880898E-2,7.664105821E-2
2.981615300E-1,1.520088315E-2,1.490402222E-2,5.255866051E-2,5.670634463E-2
3.030738740E-1,7.871146500E-2,-1.574611664E-2,2.476608753E-2,8.400472608E-2
3.079862170E-1,1.602284908E-1,-2.237319946E-2,2.597796917E-2,1.638553759E-1
3.128985610E-1,2.077989578E-1,-7.755279541E-3,-3.377223015E-2,2.106682576E-1
3.178109050E-1,1.538195163E-1,1.130867004E-2,-1.066033840E-1,1.874902960E-1
3.227232490E-1,1.293011010E-1,-9.887695312E-3,-1.760994196E-1,2.186951001E-1
3.276355400E-1,1.101036593E-1,-6.294250488E-5,-2.378267050E-1,2.620770142E-1
3.325478840E-1,1.101782098E-1,-4.444122314E-3,-2.637501955E-1,2.858726181E-1
3.374602280E-1,6.085106730E-2,2.425003052E-2,-2.684704065E-1,2.763462964E-1
3.423725720E-1,2.409823239E-2,2.896785736E-2,-2.428141832E-1,2.457205509E-1
3.472849150E-1,2.068868279E-2,3.127861023E-2,-1.942424774E-1,1.978295051E-1
3.521972590E-1,3.836621344E-2,7.667541504E-3,-1.937326193E-1,1.976438345E-1
3.571096030E-1,-4.820927978E-2,9.241104126E-4,-1.603276730E-1,1.674214782E-1
3.620219470E-1,-7.276141644E-2,2.725982666E-2,-1.061961651E-1,1.315862734E-1
3.669342900E-1,-8.586256206E-2,5.313682556E-2,-1.492965221E-2,1.020725052E-1
3.718466340E-1,-1.137230545E-1,9.270477295E-2,3.997552395E-2,1.520695583E-1
3.767589780E-1,-1.043404937E-1,1.740531921E-1,9.932029247E-2,2.259335584E-1
3.816713220E-1,-4.869583249E-2,2.258253098E-1,1.891001463E-1,2.985418228E-1
3.865836650E-1,2.209475636E-2,3.027162552E-1,2.453509569E-1,3.902850259E-1
3.914960090E-1,1.435633600E-1,3.854999542E-1,3.135839701E-1,5.172577301E-1
3.964083010E-1,2.444933653E-1,4.882860184E-1,3.346780539E-1,6.404761050E-1
4.013206440E-1,3.137826324E-1,6.061534882E-1,3.161526918E-1,7.522194601E-1
4.062329880E-1,3.663269877E-1,7.177305222E-1,2.347068787E-1,8.392972556E-1
4.111453320E-1,4.024804235E-1,8.373880386E-1,1.237426996E-1,9.372947638E-1
4.160576760E-1,4.344643950E-1,9.344024658E-1,-7.249474525E-3,1.030494946E0
4.209700190E-1,4.272053242E-1,1.065868378E0,-1.064472198E-1,1.153217585E0
4.258823630E-1,3.623412549E-1,1.191239357E0,-1.485089064E-1,1.253952665E0
4.307947070E-1,3.043648005E-1,1.379183769E0,-1.721130610E-1,1.422817173E0
4.357070510E-1,2.485402822E-1,1.567503929E0,-1.679900885E-1,1.595951600E0
4.406193940E-1,2.420671433E-1,1.725512505E0,-1.601284742E-1,1.749751706E0
4.455317380E-1,2.062837780E-1,1.905612946E0,-1.459764242E-1,1.922296234E0
4.504440820E-1,1.222768053E-1,2.143018723E0,-1.017279625E-1,2.148913549E0
4.553564260E-1,3.043329716E-2,2.411041260E0,-1.564919949E-2,2.411284106E0
4.602687690E-1,-3.166764975E-2,2.699846268E0,9.805679321E-2,2.701811956E0
4.651811130E-1,-8.373256028E-2,3.002034187E0,2.517418861E-1,3.013734292E0
4.700934570E-1,-1.880311221E-1,3.272415161E0,4.174703360E-1,3.304290873E0
4.750058010E-1,-2.499720156E-1,3.598841667E0,5.888539553E-1,3.655255988E0
4.799181440E-1,-3.582400680E-1,3.895440102E0,7.641146183E-1,3.985807406E0
4.848304880E-1,-4.132339060E-1,4.176675797E0,9.109724760E-1,4.294793804E0
4.897428320E-1,-3.846803308E-1,4.419042587E0,1.044443965E0,4.557058211E0
4.946551760E-1,-3.418935537E-1,4.649025917E0,1.115360618E0,4.793157883E0
4.995675190E-1,-3.108358383E-1,4.836030960E0,1.169556499E0,4.985145612E0
5.044798630E-1,-2.887654305E-1,5.004273415E0,1.178799391E0,5.149340335E0
5.093922070E-1,-2.659584582E-1,5.087738037E0,1.162303448E0,5.225587196E0
5.143045510E-1,-1.875250787E-1,5.182154655E0,1.165246844E0,5.314855853E0
5.192168940E-1,-4.155708849E-2,5.195097923E0,1.170775533E0,5.325550185E0
5.241292380E-1,7.692563534E-2,5.212773323E0,1.207253933E0,5.351297537E0
5.290415820E-1,1.542630345E-1,5.218631744E0,1.207794547E0,5.358794830E0
5.339539260E-1,2.526727021E-1,5.153649330E0,1.196071029E0,5.296652794E0
5.388662690E-1,3.960576952E-1,5.125303268E0,1.136096954E0,5.264628342E0
5.437786130E-1,5.844553709E-1,5.029026985E0,1.077740550E0,5.176313861E0
5.486909570E-1,7.610082626E-1,4.898737907E0,1.046757817E0,5.066800627E0
5.536033010E-1,9.189384580E-1,4.739529610E0,1.071244597E0,4.945215243E0
5.585156440E-1,1.060977697E0,4.565939903E0,1.079291105E0,4.810233899E0
5.634280400E-1,1.171075106E0,4.340190887E0,1.077945471E0,4.622838985E0
5.683403320E-1,1.268659830E0,4.131567001E0,1.097792625E0,4.459203101E0
5.732527280E-1,1.301690936E0,3.880632401E0,1.086128473E0,4.234782424E0
5.781650720E-1,1.258568406E0,3.618612289E0,1.047643185E0,3.971889421E0
5.830774150E-1,1.198921919E0,3.312391281E0,9.846357107E-1,3.657712024E0
5.879897590E-1,1.089223027E0,2.933889389E0,9.396960735E-1,3.267589702E0
5.929021030E-1,9.793280363E-1,2.545397758E0,9.409235716E-1,2.885042516E0
5.978144470E-1,8.688340187E-1,2.151695251E0,9.190268517E-1,2.495851630E0
6.027267900E-1,7.619901896E-1,1.729039192E0,9.453884959E-1,2.112809737E0
6.076391340E-1,6.606472731E-1,1.251509666E0,9.747925997E-1,1.718415513E0
6.125514780E-1,5.668441653E-1,8.215627670E-1,1.040860057E0,1.442105179E0
6.174638220E-1,5.018405914E-1,3.627891541E-1,1.086671591E0,1.250725828E0
6.223761650E-1,4.823299944E-1,-9.373760223E-2,1.145750761E0,1.246665058E0
6.272885090E-1,4.677175581E-1,-5.124588013E-1,1.191865325E0,1.379099957E0
6.322008530E-1,5.320392251E-1,-9.340715408E-1,1.174964666E0,1.592512903E0
6.371131970E-1,6.705091000E-1,-1.365690231E0,1.209089279E0,1.943344835E0
6.420255400E-1,8.928138614E-1,-1.828636169E0,1.286136627E0,2.407316817E0
6.469378840E-1,1.180295229E0,-2.313191414E0,1.396055698E0,2.948376309E0
6.518502800E-1,1.442888379E0,-2.783617020E0,1.357724071E0,3.416703856E0
6.567626240E-1,1.569424272E0,-3.254357338E0,1.228523254E0,3.816176570E0
6.616749670E-1,1.544181108E0,-3.706538200E0,1.064985752E0,4.154168434E0
6.665873110E-1,1.443998218E0,-4.119085312E0,8.733247519E-1,4.451369540E0
6.714996550E-1,1.273799896E0,-4.466365337E0,6.335953474E-1,4.687475714E0
6.764119990E-1,1.131162167E0,-4.874978542E0,3.878093362E-1,5.019495962E0
6.813243420E-1,9.583210945E-1,-5.299502850E0,2.114317417E-1,5.389602319E0
6.862366860E-1,8.454451561E-1,-5.758986473E0,1.535872221E-1,5.822739196E0
6.911490300E-1,7.181674242E-1,-6.231924534E0,1.516669989E-1,6.275002050E0
6.960613740E-1,6.571749449E-1,-6.696908474E0,1.987160444E-1,6.732009364E0
7.009737690E-1,5.952003598E-1,-7.130276680E0,3.213144541E-1,7.162286784E0
7.058861130E-1,6.009370685E-1,-7.579804420E0,4.627015591E-1,7.617654045E0
7.107984570E-1,5.071766973E-1,-8.052528381E0,5.782753229E-1,8.089180668E0
7.157108010E-1,3.591620028E-1,-8.491305351E0,6.472975612E-1,8.523512072E0
7.206231440E-1,1.347637773E-1,-8.865589142E0,6.182087064E-1,8.888138957E0
7.255354880E-1,-1.000100374E-1,-9.202129364E0,5.583524108E-1,9.219595667E0
7.304478320E-1,-3.721034527E-1,-9.506092072E0,5.060082674E-1,9.526819607E0
7.353601760E-1,-5.724710226E-1,-9.763557434E0,4.588644505E-1,9.791084384E0
7.402725720E-1,-6.781851053E-1,-1.000346279E1,4.551053047E-1,1.003674866E1
7.451849150E-1,-7.661073208E-1,-1.020224476E1,4.350469112E-1,1.024021408E1
7.500972590E-1,-8.433170915E-1,-1.040544128E1,4.010124207E-1,1.044725816E1
7.550096030E-1,-8.571565151E-1,-1.062264061E1,3.549484015E-1,1.066307644E1
7.599219470E-1,-8.214316368E-1,-1.084198189E1,2.627050877E-1,1.087622798E1
7.648342900E-1,-6.998130083E-1,-1.106121159E1,1.472196579E-1,1.108430483E1
7.697466340E-1,-6.179518700E-1,-1.128046417E1,2.787828445E-3,1.129737776E1
7.746589780E-1,-5.681829453E-1,-1.146188068E1,-1.500396729E-1,1.147693568E1
7.795713740E-1,-5.741360188E-1,-1.160587883E1,-2.334892750E-1,1.162241682E1
7.844837170E-1,-6.239898205E-1,-1.172948265E1,-2.912080288E-1,1.174967781E1
7.893960610E-1,-7.202770710E-1,-1.171396637E1,-2.520587444E-1,1.173879639E1
7.943084050E-1,-7.794889212E-1,-1.166482639E1,-1.045964956E-1,1.169130952E1
7.992207490E-1,-8.161808252E-1,-1.159400940E1,1.439808607E-1,1.162359392E1
8.041330920E-1,-8.421785831E-1,-1.151572800E1,3.746330738E-1,1.155255842E1
8.090454880E-1,-8.671267033E-1,-1.142030525E1,6.072470546E-1,1.146926457E1
8.139578320E-1,-9.055901766E-1,-1.134097004E1,8.234944344E-1,1.140683296E1
8.188701760E-1,-1.012686491E0,-1.122040462E1,9.978517294E-1,1.131011591E1
8.237825190E-1,-1.126446605E0,-1.105393982E1,1.117022753E0,1.116719335E1
8.286948630E-1,-1.220973134E0,-1.084169197E1,1.243972182E0,1.098091649E1
8.336072070E-1,-1.322919488E0,-1.058853722E1,1.312986612E0,1.075133341E1
8.385196030E-1,-1.482819319E0,-1.028271484E1,1.368235111E0,1.047879025E1
8.434319470E-1,-1.700918794E0,-9.943532944E0,1.441305876E0,1.019040405E1
8.483442900E-1,-1.884504795E0,-9.459321976E0,1.437225103E0,9.751704803E0
8.532566340E-1,-2.017433882E0,-8.983182907E0,1.371118069E0,9.308468154E0
8.581689780E-1,-2.068934441E0,-8.493521690E0,1.253368616E0,8.831270198E0
8.630813220E-1,-2.015380383E0,-8.037880898E0,1.198823810E0,8.372960405E0
8.679937170E-1,-1.930870175E0,-7.527886391E0,1.121664047E0,7.852099298E0
8.729060610E-1,-1.798664212E0,-6.970892429E0,9.745653868E-1,7.264868333E0
8.778184050E-1,-1.609063148E0,-6.362287521E0,7.841864228E-1,6.609291571E0
8.827307490E-1,-1.369131207E0,-5.618957043E0,5.934078693E-1,5.813719241E0
8.876430920E-1,-1.062229872E0,-4.820118427E0,3.969671726E-1,4.951712521E0
8.925554880E-1,-7.528611422E-1,-4.125445366E0,8.949118108E-2,4.194533113E0
8.974678320E-1,-5.004947782E-1,-3.453283787E0,-2.814422846E-1,3.500696173E0
9.023801760E-1,-3.024245501E-1,-2.781945705E0,-6.519532800E-1,2.873277849E0
9.072925190E-1,-8.190792799E-2,-2.066021919E0,-9.486571550E-1,2.274885904E0
9.122049150E-1,1.899227202E-1,-1.257948875E0,-1.103231668E0,1.683931747E0
9.171172590E-1,5.182006955E-1,-4.246692657E-1,-1.138106108E0,1.320667051E0
9.220296030E-1,8.725850582E-1,4.434366226E-1,-1.123033643E0,1.489713155E0
9.269419470E-1,1.330037951E0,1.263054848E0,-1.070025682E0,2.123502640E0
9.318542900E-1,1.774256945E0,2.184612274E0,-1.029085755E0,2.996587390E0
9.367666860E-1,2.096219540E0,3.248133659E0,-9.452371597E-1,3.979696209E0
9.416790300E-1,2.337184191E0,4.355296135E0,-8.207708597E-1,5.010458978E0
9.465913740E-1,2.545201778E0,5.520176888E0,-6.363103390E-1,6.111897889E0
9.515037170E-1,2.794329643E0,6.618640900E0,-3.771564364E-1,7.194229110E0
9.564160610E-1,3.153744936E0,7.717661858E0,-5.954825878E-2,8.337383142E0
9.613284570E-1,3.535283566E0,8.726644516E0,2.813826799E-1,9.419752152E0
9.662408010E-1,3.905993223E0,9.643549919E0,5.605061054E-1,1.041964516E1
9.711531440E-1,4.192555904E0,1.048299408E1,7.453140020E-1,1.131486557E1
9.760654880E-1,4.381258488E0,1.128572941E1,9.175032377E-1,1.214104305E1
9.809778840E-1,4.517868519E0,1.211136150E1,1.096207500E0,1.297296744E1
9.858902280E-1,4.600149155E0,1.292872238E1,1.250346184E0,1.377957185E1
9.908025720E-1,4.644844532E0,1.375444221E1,1.461011529E0,1.459088126E1
9.957149150E-1,4.778329372E0,1.451209545E1,1.780696273E0,1.538194478E1
1.000627311E0,4.917117119E0,1.521373844E1,2.159276724E0,1.613376441E1
1.005539655E0,5.076438427E0,1.588323307E1,2.549202919E0,1.686848409E1
1.010451999E0,5.211792946E0,1.646333313E1,2.829238892E0,1.749882042E1
1.015364394E0,5.295392513E0,1.691379547E1,3.031018972E0,1.798067671E1
1.020276738E0,5.259167194E0,1.723987579E1,3.142953634E0,1.829618306E1
1.025189082E0,5.097143650E0,1.750160599E1,3.220189095E0,1.851098872E1
1.030101426E0,4.833786011E0,1.765636063E1,3.296159983E0,1.860046312E1
1.035013822E0,4.500535965E0,1.763548279E1,3.430569172E0,1.852117388E1
1.039926165E0,4.161746025E0,1.750399399E1,3.645129204E0,1.835747538E1
1.044838509E0,3.822027445E0,1.730504608E1,3.911859512E0,1.814869578E1
1.049750853E0,3.459450483E0,1.694575882E1,4.255534649E0,1.781112334E1
1.054663249E0,2.968407631E0,1.651948929E1,4.584378242E0,1.739889347E1
1.059575592E0,2.367310524E0,1.602153206E1,4.825979233E0,1.689922259E1
1.064487936E0,1.774156094E0,1.546866989E1,5.058349609E0,1.637114165E1
1.069400280E0,1.227726817E0,1.484912491E1,5.215804577E0,1.578633716E1
1.074312676E0,7.428565621E-1,1.411783218E1,5.359171867E0,1.511905237E1
1.079225019E0,2.627835870E-1,1.332291889E1,5.446428299E0,1.439558280E1
1.084137363E0,-2.836201191E-1,1.252661324E1,5.485797882E0,1.367810140E1
1.089049759E0,-8.003641367E-1,1.169807053E1,5.468343735E0,1.293785995E1
1.093962103E0,-1.195706129E0,1.084717083E1,5.408689976E0,1.217968618E1
1.098874447E0,-1.324675798E0,1.000055599E1,5.380414009E0,1.143305476E1
1.103786842E0,-1.185285091E0,9.177668571E0,5.249219418E0,1.063902278E1
1.108699186E0,-9.011379480E-1,8.319254875E0,5.062466145E0,9.780113228E0
1.113611530E0,-6.215593219E-1,7.459424019E0,4.807102203E0,8.895930209E0
1.118523926E0,-4.357208014E-1,6.689435959E0,4.436060905E0,8.038472642E0
1.123436269E0,-2.752600014E-1,6.047729492E0,3.949722767E0,7.228492928E0
1.128348613E0,-1.176978946E-1,5.462858200E0,3.431767225E0,6.452418058E0
1.133261009E0,4.523336887E-2,4.849255562E0,2.946501255E0,5.674433470E0
1.138173353E0,2.502493262E-1,4.195471764E0,2.515136003E0,4.898011552E0
1.143085697E0,3.643014729E-1,3.540009499E0,2.089862347E0,4.126973157E0
1.147998040E0,5.482236147E-1,2.885264397E0,1.792939663E0,3.440920285E0
1.152910436E0,8.075737953E-1,2.274001122E0,1.720363379E0,2.963596918E0
1.157822780E0,1.152803898E0,1.593756676E0,1.751547456E0,2.633806306E0
1.162735124E0,1.479752183E0,8.922357559E-1,1.840863705E0,2.524783228E0
1.167647519E0,1.784559488E0,1.907577515E-1,1.952380180E0,2.651948238E0
1.172559863E0,1.984456658E0,-5.013256073E-1,2.088487387E0,2.924239244E0
1.177472207E0,2.125517845E0,-1.177040100E0,2.141907454E0,3.238983953E0
1.182384603E0,2.186497450E0,-1.843684196E0,2.124740601E0,3.562929291E0
1.187296947E0,2.157814264E0,-2.560938835E0,2.058491230E0,3.930897641E0
1.192209342E0,2.032039881E0,-3.304774284E0,1.942877054E0,4.338835143E0
1.197121686E0,1.882797241E0,-4.060801029E0,1.796884775E0,4.823258789E0
1.202034030E0,1.683062911E0,-4.776549339E0,1.727886558E0,5.351048151E0
1.206946426E0,1.462938786E0,-5.468912125E0,1.764250636E0,5.929736084E0
1.211858769E0,1.197556257E0,-6.169023991E0,1.860735297E0,6.553879296E0
1.216771113E0,9.743496776E-1,-6.891196251E0,1.946345687E0,7.226769997E0
1.221683509E0,7.994077206E-1,-7.613916874E0,2.103172064E0,7.939402723E0
1.226595853E0,6.264495850E-1,-8.313379288E0,2.300923824E0,8.648639472E0
1.231508197E0,4.807269573E-1,-9.032656670E0,2.487950563E0,9.381358267E0
1.236420592E0,3.375260830E-1,-9.714512825E0,2.574590683E0,1.005555570E1
1.241332936E0,2.007147074E-1,-1.042118549E1,2.626354694E0,1.074891308E1
1.246245280E0,6.683123112E-2,-1.111218548E1,2.670300245E0,1.142871978E1
1.251157676E0,-1.270576715E-1,-1.177580070E1,2.733525753E0,1.208957356E1
1.256070019E0,-2.646526098E-1,-1.237891388E1,2.800149918E0,1.269442356E1
1.260982415E0,-4.063735008E-1,-1.294576740E1,2.861203909E0,1.326440805E1
1.265894759E0,-5.552141666E-1,-1.347429657E1,2.845610142E0,1.378268580E1
1.270807103E0,-6.569852829E-1,-1.398632336E1,2.787266731E0,1.427647458E1
1.275719499E0,-7.939033508E-1,-1.448696136E1,2.617110491E0,1.474284909E1
1.280631842E0,-9.428844452E-1,-1.497894764E1,2.385377884E0,1.519697112E1
1.285544186E0,-1.016102791E0,-1.540057850E1,2.134696960E0,1.558098887E1
1.290456582E0,-9.496837854E-1,-1.572134018E1,1.862351656E0,1.585972226E1
1.295368926E0,-8.512098789E-1,-1.595844650E1,1.525020361E0,1.605373041E1
1.300281322E0,-7.108081579E-1,-1.612185669E1,1.124570012E0,1.617665506E1
1.305193665E0,-5.374853611E-1,-1.622385025E1,7.198106050E-1,1.624870256E1
1.310106061E0,-3.683764935E-1,-1.623841476E1,2.189052105E-1,1.624406768E1
1.315018405E0,-1.784827709E-1,-1.619691658E1,-3.506608009E-1,1.620169515E1
1.319930749E0,-3.338050842E-2,-1.611151314E1,-9.115830660E-1,1.613731556E1
1.324843144E0,7.042634487E-2,-1.602062798E1,-1.448757291E0,1.608615486E1
1.329755488E0,1.028385162E-1,-1.589580822E1,-1.928007245E0,1.601263584E1
1.334667832E0,5.010104179E-2,-1.570642471E1,-2.362908602E0,1.588324981E1
1.339580228E0,-1.139140129E-1,-1.547211075E1,-2.766672134E0,1.571794077E1
1.344492572E0,-2.559149265E-1,-1.520054626E1,-3.133046627E0,1.552218027E1
1.349404967E0,-4.434111118E-1,-1.496604919E1,-3.431501389E0,1.536080869E1
1.354317311E0,-5.935893059E-1,-1.474004745E1,-3.595436096E0,1.518382389E1
1.359229707E0,-7.310962677E-1,-1.448440170E1,-3.596368313E0,1.494209689E1
1.364142051E0,-8.324594498E-1,-1.417999935E1,-3.445961952E0,1.461642994E1
1.369054447E0,-8.838996887E-1,-1.381963539E1,-3.148246765E0,1.420123441E1
1.373966790E0,-8.736920357E-1,-1.343416309E1,-2.683273554E0,1.372734617E1
1.378879134E0,-8.377230167E-1,-1.298745346E1,-2.202638149E0,1.319952052E1
1.383791530E0,-7.592639923E-1,-1.253657532E1,-1.776524663E0,1.268456709E1
1.388703874E0,-6.811268330E-1,-1.206207848E1,-1.379732132E0,1.215982449E1
1.393616269E0,-6.746747494E-1,-1.156848431E1,-1.001599312E0,1.163134628E1
1.398528613E0,-6.655613184E-1,-1.103652191E1,-6.676726341E-1,1.107671316E1
1.403441009E0,-7.157363892E-1,-1.049474335E1,-4.513871670E-1,1.052880178E1
1.408353353E0,-7.125493288E-1,-9.959643364E0,-3.235275149E-1,9.990339961E0
1.413265697E0,-7.420090437E-1,-9.423876762E0,-2.170136571E-1,9.455534125E0
1.418178092E0,-7.302055359E-1,-8.779962540E0,-1.221424341E-1,8.811121444E0
1.423090436E0,-7.465591431E-1,-8.142639160E0,-2.948340774E-2,8.176844888E0
1.428002832E0,-7.218544483E-1,-7.468768120E0,4.421240091E-2,7.503700807E0
1.432915176E0,-6.896175146E-1,-6.772591591E0,1.371475905E-1,6.808992483E0
1.437827572E0,-6.810780764E-1,-6.006292343E0,2.017847300E-1,6.048151134E0
1.442739915E0,-7.323298454E-1,-5.105549335E0,2.887752354E-1,5.165881547E0
1.447652311E0,-7.501993179E-1,-4.120734692E0,5.035618544E-1,4.218628682E0
1.452564655E0,-6.200413704E-1,-3.111553669E0,7.604540586E-1,3.262592207E0
1.457477051E0,-4.274985790E-1,-1.984783649E0,1.040819407E0,2.281540315E0
1.462389394E0,-1.575727463E-1,-7.763795853E-1,1.299570203E0,1.521997747E0
1.467301790E0,1.739722490E-1,5.636892319E-1,1.522818327E0,1.633091409E0
1.472214134E0,5.633759499E-1,2.004119873E0,1.684545040E0,2.677980754E0
1.477126530E0,9.350140691E-1,3.563745499E0,1.832663298E0,4.114995510E0
1.482038874E0,1.282440186E0,5.211201668E0,1.966926098E0,5.715774132E0
1.486951217E0,1.605857134E0,6.927134514E0,2.046448231E0,7.399454039E0
1.491863613E0,1.945596218E0,8.697011948E0,2.114053249E0,9.159289416E0
1.496775957E0,2.327929735E0,1.043235111E1,2.169972181E0,1.090696960E1
1.501688353E0,2.779546022E0,1.212362862E1,2.300765038E0,1.264918047E1
1.506600697E0,3.305809021E0,1.370633411E1,2.454721928E0,1.431145094E1
1.511513092E0,3.897619247E0,1.523776627E1,2.706941605E0,1.595958926E1
1.516425488E0,4.507776260E0,1.665324783E1,3.032104492E0,1.751697371E1
1.521337832E0,5.101256371E0,1.803853989E1,3.381218433E0,1.904847437E1
1.526250228E0,5.676809311E0,1.933351707E1,3.710006714E0,2.048841615E1
1.531162572E0,6.266692638E0,2.050923920E1,4.017135143E0,2.181828829E1
1.536074915E0,6.812524319E0,2.154407883E1,4.214787960E0,2.298526175E1
1.540987311E0,7.303635120E0,2.239273071E1,4.272215366E0,2.393803039E1
1.545899655E0,7.638752460E0,2.301491547E1,4.198848724E0,2.461030686E1
1.550812051E0,7.883784771E0,2.338253784E1,4.006136894E0,2.499892540E1
1.555724394E0,8.049220085E0,2.355357933E1,3.834387541E0,2.518458995E1
1.560636790E0,8.126171112E0,2.352857780E1,3.704369307E0,2.516646543E1
1.565549134E0,8.064746857E0,2.337252998E1,3.591803789E0,2.498432217E1
1.570461530E0,7.924530029E0,2.306915283E1,3.560996056E0,2.465085559E1
1.575373926E0,7.700435162E0,2.257835388E1,3.568901539E0,2.412085869E1
1.580286269E0,7.451776028E0,2.193652725E1,3.651595592E0,2.345366377E1
1.585198665E0,7.154060841E0,2.109883308E1,3.775976896E0,2.259644542E1
1.590111009E0,6.804339409E0,2.013034439E1,3.913978815E0,2.160668948E1
1.595023405E0,6.461673260E0,1.906734848E1,4.070909500E0,2.053994410E1
1.599935749E0,6.130270958E0,1.786253738E1,4.175527573E0,1.934128988E1
1.604848144E0,5.740148067E0,1.655955124E1,4.216124535E0,1.802619603E1
1.609760488E0,5.331344128E0,1.521626186E1,4.207111359E0,1.666306218E1
1.614672884E0,4.883731365E0,1.391191101E1,4.153112888E0,1.531797789E1
1.619585228E0,4.381892681E0,1.256561375E1,4.077720642E0,1.391845674E1
1.624497624E0,3.860825300E0,1.123510075E1,4.025950432E0,1.254359349E1
1.629409967E0,3.417607784E0,9.973152161E0,3.999600887E0,1.127566469E1
1.634322363E0,3.041771173E0,8.717761993E0,3.988626480E0,1.005787688E1
1.639234759E0,2.653519869E0,7.490596771E0,3.995077372E0,8.894428081E0
1.644147103E0,2.318860769E0,6.301347733E0,3.989743471E0,7.810387409E0
1.649059499E0,2.027431726E0,5.166715622E0,4.051309586E0,6.871574716E0
1.653971842E0,1.850519300E0,4.100898743E0,4.191696644E0,6.149155465E0
1.658884238E0,1.787826300E0,3.122803688E0,4.382368565E0,5.670395047E0
1.663796582E0,1.710099816E0,2.174896240E0,4.590341568E0,5.359650245E0
1.668708978E0,1.583937287E0,1.259557724E0,4.787144661E0,5.197316326E0
1.673621374E0,1.468983889E0,3.410406113E-1,4.932027817E0,5.157433543E0
1.678533717E0,1.398727417E0,-5.183801651E-1,4.940917969E0,5.161184627E0
1.683446113E0,1.399739146E0,-1.387866020E0,4.865727901E0,5.249833310E0
1.688358457E0,1.431700468E0,-2.219410896E0,4.683948517E0,5.377259959E0
1.693270853E0,1.456983924E0,-3.070178986E0,4.432425499E0,5.585266060E0
1.698183197E0,1.473954201E0,-3.904108047E0,4.107136250E0,5.855183072E0
1.703095592E0,1.458913326E0,-4.745018482E0,3.761499882E0,6.228363336E0
1.708007936E0,1.404953003E0,-5.568997860E0,3.401222467E0,6.675023923E0
1.712920332E0,1.336042404E0,-6.383311749E0,3.056148767E0,7.202202682E0
1.717832728E0,1.249515772E0,-7.142765522E0,2.746687174E0,7.754010536E0
1.722745072E0,1.121253848E0,-7.904985428E0,2.503165960E0,8.367308088E0
1.727657467E0,9.818614125E-1,-8.622447968E0,2.279878139E0,8.972653182E0
1.732569811E0,7.926086187E-1,-9.355199814E0,2.114773035E0,9.623941862E0
1.737482207E0,5.911759138E-1,-1.011539745E1,2.024573803E0,1.033294022E1
1.742394603E0,3.722195625E-1,-1.086024284E1,1.954592705E0,1.104100786E1
1.747306947E0,1.923964024E-1,-1.156378174E1,1.929260731E0,1.172519132E1
1.752219342E0,1.275503635E-2,-1.222876453E1,1.913383842E0,1.237755559E1
1.757131686E0,-1.435434818E-1,-1.291284370E1,1.883918762E0,1.305033667E1
1.762044082E0,-2.602981329E-1,-1.363287830E1,1.863142252E0,1.376206471E1
1.766956478E0,-3.858654499E-1,-1.432213783E1,1.751366258E0,1.443398102E1
1.771868822E0,-4.825072289E-1,-1.496183777E1,1.551585317E0,1.504981128E1
1.776781217E0,-5.364906788E-1,-1.556908417E1,1.307163239E0,1.563307007E1
1.781693613E0,-5.652472973E-1,-1.613469696E1,9.944702387E-1,1.617519464E1
1.786605957E0,-5.788490772E-1,-1.672351456E1,6.423820257E-1,1.674585501E1
1.791518353E0,-6.300981045E-1,-1.728557205E1,2.651252151E-1,1.729908426E1
1.796430697E0,-6.881453991E-1,-1.776870346E1,-1.306284070E-1,1.778250349E1
1.801343092E0,-7.914328575E-1,-1.814237595E1,-5.071675777E-1,1.816671104E1
1.806255488E0,-9.351048470E-1,-1.836417007E1,-8.915245533E-1,1.840956218E1
1.811167832E0,-1.081156731E0,-1.849686623E1,-1.229285598E0,1.856917077E1
1.816080228E0,-1.179369926E0,-1.857907104E1,-1.566289544E0,1.868223909E1
1.820992624E0,-1.169920206E0,-1.862298775E1,-1.864956141E0,1.875266507E1
1.825904967E0,-1.112316132E0,-1.863594246E1,-2.166617870E0,1.879440958E1
1.830817363E0,-1.034677029E0,-1.862517357E1,-2.421773434E0,1.881043948E1
1.835729759E0,-9.342765808E-1,-1.853586578E1,-2.707558632E0,1.875585420E1
1.840642103E0,-8.440523148E-1,-1.842550278E1,-2.943360567E0,1.867819446E1
1.845554499E0,-7.681224346E-1,-1.823200798E1,-3.196901321E0,1.852609795E1
1.850466842E0,-7.084600925E-1,-1.797947311E1,-3.387860298E0,1.830958674E1
1.855379238E0,-6.696207523E-1,-1.770387268E1,-3.550658941E0,1.806883169E1
1.860291634E0,-6.369256973E-1,-1.738365555E1,-3.607094765E0,1.776536763E1
1.865203978E0,-5.980083942E-1,-1.705929375E1,-3.572082996E0,1.743952104E1
1.870116374E0,-5.836374760E-1,-1.675677490E1,-3.472118378E0,1.712266755E1
1.875028769E0,-6.317551136E-1,-1.643513489E1,-3.324093819E0,1.677982041E1
1.879941113E0,-7.805414200E-1,-1.605353928E1,-3.056317329E0,1.636051478E1
1.884853509E0,-9.513099194E-1,-1.563091183E1,-2.649419308E0,1.588237444E1
1.889765905E0,-1.120563984E0,-1.519085884E1,-2.217389107E0,1.539268237E1
1.894678249E0,-1.315324783E0,-1.470920849E1,-1.771055937E0,1.487371953E1
1.899590644E0,-1.526908755E0,-1.418338013E1,-1.344905138E0,1.432859002E1
1.904503040E0,-1.746579647E0,-1.364184284E1,-8.968949318E-1,1.378241042E1
1.909415384E0,-1.972688675E0,-1.303180218E1,-4.493315220E-1,1.318792127E1
1.914327780E0,-2.184508801E0,-1.227438927E1,1.830741763E-3,1.246726570E1
1.919240176E0,-2.313481331E0,-1.135304832E1,4.749210477E-1,1.159609642E1
1.924152519E0,-2.372324228E0,-1.035158443E1,9.212920666E-1,1.065983122E1
1.929064915E0,-2.340135098E0,-9.320160866E0,1.325638294E0,9.700461212E0
1.933977311E0,-2.258208752E0,-8.232444763E0,1.694186807E0,8.703040990E0
1.938889655E0,-2.050203323E0,-7.026267052E0,1.953884363E0,7.575580932E0
1.943802051E0,-1.713237047E0,-5.766079903E0,2.191562176E0,6.402015573E0
1.948714447E0,-1.198756099E0,-4.310792923E0,2.359891891E0,5.058561213E0
1.953626790E0,-6.282079220E-1,-2.608065605E0,2.544936180E0,3.697749526E0
1.958539186E0,-4.650789499E-2,-5.913791656E-1,2.763171673E0,2.826129862E0
1.963451582E0,5.925002098E-1,1.628916740E0,2.978496075E0,3.446137709E0
1.968363978E0,1.244690299E0,3.988123894E0,3.166810513E0,5.242430253E0
1.973276322E0,2.067185163E0,6.450310707E0,3.361238956E0,7.561593089E0
1.978188717E0,3.114538670E0,8.950913429E0,3.582529068E0,1.013181706E1
1.983101113E0,4.363106251E0,1.135376930E1,3.748357296E0,1.272772391E1
1.988013457E0,5.763441086E0,1.354429722E1,3.855603218E0,1.521614000E1
1.992925853E0,7.144472599E0,1.544854927E1,3.975163221E0,1.747864657E1
1.997838249E0,8.363742828E0,1.721228790E1,4.125259876E0,1.957633311E1
2.002750644E0,9.438432693E0,1.889722252E1,4.319340229E0,2.156028132E1
2.007662988E0,1.026752758E1,2.057218933E1,4.484734535E0,2.342541228E1
2.012575384E0,1.079967880E1,2.216739655E1,4.649545670E0,2.509272418E1
2.017487780E0,1.105704975E1,2.357750893E1,4.741871834E0,2.646965479E1
2.022400124E0,1.109462547E1,2.463533211E1,4.872316837E0,2.745413947E1
2.027312519E0,1.097423553E1,2.538173866E1,5.121023178E0,2.812279114E1
2.032224915E0,1.072828293E1,2.581439209E1,5.502070904E0,2.849125616E1
2.037137311E0,1.039338112E1,2.599534607E1,5.998962402E0,2.863158987E1
2.042049655E0,9.991400719E0,2.594347763E1,6.507187843E0,2.855233114E1
2.046962051E0,9.573003769E0,2.574921608E1,6.967737675E0,2.834102853E1
2.051874447E0,9.129144669E0,2.545264626E1,7.330994606E0,2.801645884E1
2.056786842E0,8.730068207E0,2.498167801E1,7.587372780E0,2.752937618E1
2.061699186E0,8.341056824E0,2.434587097E1,7.671515465E0,2.685417680E1
2.066611582E0,7.961185932E0,2.354075623E1,7.569866657E0,2.597788610E1
2.071523978E0,7.580331802E0,2.260524178E1,7.318112373E0,2.494019155E1
2.076436322E0,7.200990677E0,2.156877899E1,6.984614372E0,2.378762981E1
2.081348717E0,6.852045059E0,2.038211823E1,6.575109959E0,2.248584746E1
2.086261113E0,6.463948727E0,1.912043190E1,6.166944504E0,2.110461451E1
2.091173509E0,6.106125832E0,1.781327438E1,5.799164772E0,1.970349789E1
2.096085853E0,5.831233978E0,1.644947052E1,5.432033539E0,1.827827559E1
2.100998249E0,5.517225266E0,1.516347218E1,5.171947956E0,1.694460707E1
2.105910644E0,5.192727566E0,1.394369698E1,4.948377609E0,1.568048296E1
2.110823040E0,4.922207355E0,1.271163368E1,4.746054173E0,1.443394563E1
2.115735384E0,4.665093899E0,1.144863987E1,4.578329086E0,1.318315414E1
2.120647780E0,4.404790401E0,1.016231823E1,4.439583778E0,1.193250998E1
2.125560176E0,4.179316044E0,8.951017380E0,4.321897507E0,1.078268022E1
2.130472572E0,3.902362823E0,7.817314148E0,4.226786613E0,9.705903419E0
2.135384967E0,3.614147186E0,6.708821297E0,4.112839699E0,8.659433784E0
2.140297311E0,3.316434383E0,5.663945198E0,4.005887985E0,7.689353079E0
2.145209707E0,3.056538582E0,4.584781647E0,3.986789227E0,6.801260118E0
2.150122103E0,2.786284447E0,3.490605354E0,4.019439697E0,6.008627317E0
2.155034499E0,2.522252798E0,2.491365433E0,4.048815250E0,5.381595101E0
2.159946842E0,2.297680378E0,1.510478973E0,4.105874062E0,4.941566923E0
2.164859238E0,2.091018438E0,6.076049805E-1,4.202792645E0,4.733392857E0
2.169771634E0,1.921463251E0,-3.105745316E-1,4.303879738E0,4.723542988E0
2.174684030E0,1.834549069E0,-1.177102089E0,4.425932884E0,4.933560734E0
2.179596426E0,1.761256933E0,-2.049343109E0,4.480381966E0,5.232175047E0
2.184508769E0,1.661345482E0,-2.919971943E0,4.449946404E0,5.575690805E0
2.189421165E0,1.597429872E0,-3.764970779E0,4.312545776E0,5.943470218E0
2.194333561E0,1.503010035E0,-4.572317123E0,4.134308815E0,6.344890261E0
2.199245957E0,1.423872590E0,-5.358693123E0,3.918907404E0,6.789759965E0
2.204158353E0,1.408153772E0,-6.107338428E0,3.727343559E0,7.292158099E0
2.209070697E0,1.436913252E0,-6.825448036E0,3.527218103E0,7.816183732E0
2.213983092E0,1.395457029E0,-7.596685410E0,3.336508751E0,8.413632995E0
2.218895488E0,1.257466078E0,-8.346928596E0,3.164068460E0,9.014641821E0
2.223807884E0,1.127562284E0,-9.083489418E0,3.033482313E0,9.642779250E0
2.228720280E0,9.808391333E-1,-9.823263168E0,2.836851835E0,1.027162465E1
2.233632624E0,7.779179811E-1,-1.054255199E1,2.681624889E0,1.090603828E1
2.238545019E0,5.227253437E-1,-1.125594902E1,2.498654604E0,1.154178950E1
2.243457415E0,1.928218603E-1,-1.195893002E1,2.377098083E0,1.219441605E1
2.248369811E0,-1.365453005E-1,-1.262552071E1,2.312957048E0,1.283636195E1
2.253282207E0,-5.311878920E-1,-1.320116234E1,2.309623957E0,1.341220379E1
2.258194551E0,-9.040375948E-1,-1.365054798E1,2.342144012E0,1.387949505E1
2.263106947E0,-1.280421138E0,-1.403163242E1,2.397428036E0,1.429244024E1
2.268019342E0,-1.568117738E0,-1.443563080E1,2.402644396E0,1.471798661E1
2.272931738E0,-1.822818398E0,-1.479583168E1,2.356597185E0,1.509280797E1
2.277844134E0,-2.009041309E0,-1.513400459E1,2.255443096E0,1.543247762E1
2.282756530E0,-2.096153259E0,-1.543602562E1,2.126070738E0,1.572211570E1
2.287668874E0,-2.093934059E0,-1.573075676E1,1.906539440E0,1.598362164E1
2.292581269E0,-1.987794638E0,-1.601825142E1,1.618194103E0,1.622203003E1
2.297493665E0,-1.865316749E0,-1.635340881E1,1.207830906E0,1.650370388E1
2.302406061E0,-1.742384315E0,-1.663817978E1,6.649632454E-1,1.674237455E1
2.307318457E0,-1.644757748E0,-1.684177589E1,3.821563721E-2,1.692194149E1
2.312230853E0,-1.581402302E0,-1.705536461E1,-6.910097599E-1,1.714245577E1
2.317143197E0,-1.587546110E0,-1.725529861E1,-1.376371622E0,1.738275098E1
2.322055592E0,-1.607867718E0,-1.738463020E1,-2.060479403E0,1.757999378E1
2.326967988E0,-1.654268265E0,-1.742956734E1,-2.706618309E0,1.771587434E1
2.331880384E0,-1.679054976E0,-1.743608093E1,-3.261191130E0,1.781773026E1
2.336792780E0,-1.758872747E0,-1.738788605E1,-3.720580339E0,1.786826608E1
2.341705176E0,-1.857903481E0,-1.725912476E1,-4.102551460E0,1.783704351E1
2.346617572E0,-1.957156658E0,-1.714337921E1,-4.424623489E0,1.781300665E1
2.351529915E0,-2.056897402E0,-1.702646255E1,-4.656271935E0,1.777110358E1
2.356442311E0,-2.150309563E0,-1.692753601E1,-4.814330101E0,1.772972309E1
2.361354707E0,-2.196810484E0,-1.684883308E1,-4.817470074E0,1.766117693E1
2.366267103E0,-2.241900444E0,-1.671361732E1,-4.713180065E0,1.750957418E1
2.371179499E0,-2.323960304E0,-1.651932526E1,-4.613232136E0,1.730811397E1
2.376091894E0,-2.404906988E0,-1.628725815E1,-4.430853367E0,1.704965739E1
2.381004290E0,-2.518445253E0,-1.598610115E1,-4.182378292E0,1.671497187E1
2.385916634E0,-2.557024479E0,-1.564903736E1,-3.884187222E0,1.632536845E1
2.390829030E0,-2.463256598E0,-1.534010029E1,-3.485251427E0,1.592272864E1
2.395741426E0,-2.366091251E0,-1.493436432E1,-3.003332376E0,1.541601864E1
2.400653822E0,-2.301385403E0,-1.439803410E1,-2.489451408E0,1.479179262E1
2.405566217E0,-2.202353954E0,-1.378823471E1,-1.937058806E0,1.409673637E1
2.410478613E0,-1.980699420E0,-1.306405258E1,-1.361105204E0,1.328326946E1
2.415391009E0,-1.722578406E0,-1.228506088E1,-7.813743353E-1,1.242982474E1
2.420303405E0,-1.494453073E0,-1.144863796E1,-3.018012345E-1,1.154970931E1
2.425215801E0,-1.264819741E0,-1.051165962E1,6.175509095E-2,1.058766125E1
2.430128144E0,-1.023679495E0,-9.462197304E0,3.932746649E-1,9.525532137E0
2.435040540E0,-7.538104653E-1,-8.199958801E0,6.930246949E-1,8.263645551E0
2.439952936E0,-4.548977613E-1,-6.706123352E0,9.421485662E-1,6.787242909E0
2.444865332E0,-1.820138693E-1,-4.930893421E0,1.162047029E0,5.069239812E0
2.449777728E0,4.071816802E-2,-2.927289009E0,1.313794374E0,3.208852532E0
2.454690124E0,3.494961262E-1,-8.078689575E-1,1.439117074E0,1.686967026E0
2.459602519E0,8.739976287E-1,1.417863846E0,1.603831291E0,2.312246646E0
2.464514915E0,1.548334837E0,3.597054482E0,1.847798347E0,4.330184805E0
2.469427311E0,2.393500328E0,5.577082634E0,2.191972017E0,6.452707637E0
2.474339707E0,3.390141726E0,7.248481750E0,2.583637714E0,8.408848461E0
2.479252051E0,4.409229279E0,8.683407784E0,3.061216116E0,1.020852182E1
2.484164447E0,5.498870850E0,1.001339531E1,3.582121134E0,1.197235391E1
2.489076842E0,6.542480469E0,1.131213188E1,4.149544716E0,1.371083877E1
2.493989238E0,7.444550991E0,1.263393402E1,4.733210564E0,1.540911777E1
2.498901634E0,8.046835899E0,1.378686333E1,5.228786469E0,1.679789797E1
2.503814030E0,8.386610985E0,1.468457985E1,5.598639011E0,1.781339069E1
2.508726426E0,8.461848259E0,1.540356636E1,5.742864609E0,1.848927328E1
2.513638822E0,8.274682999E0,1.590568829E1,5.637698174E0,1.879481150E1
2.518551217E0,7.850647449E0,1.614589500E1,5.357322693E0,1.873562108E1
2.523463613E0,7.322462082E0,1.615336990E1,5.040576458E0,1.843792888E1
2.528376009E0,6.817810059E0,1.592136478E1,4.788361549E0,1.796944064E1
2.533288405E0,6.318357468E0,1.554108620E1,4.579727173E0,1.739025308E1
2.538200801E0,5.817977905E0,1.507242870E1,4.413125992E0,1.674821349E1
2.543113197E0,5.329576015E0,1.451299286E1,4.289582253E0,1.604468317E1
2.548025540E0,4.870827198E0,1.387945366E1,4.188695908E0,1.529409575E1
2.552937936E0,4.390527725E0,1.315973377E1,4.054086685E0,1.445306007E1
2.557850332E0,3.990452766E0,1.240876293E1,3.888866425E0,1.360236718E1
2.562762728E0,3.590342999E0,1.166710472E1,3.731768847E0,1.276471677E1
2.567675124E0,3.217683792E0,1.088683701E1,3.540146351E0,1.189156614E1
2.572587519E0,2.909755707E0,1.011334324E1,3.304686308E0,1.103029199E1
2.577499915E0,2.658652782E0,9.294013023E0,3.054049253E0,1.013776748E1
2.582412311E0,2.463817835E0,8.488726616E0,2.737677574E0,9.253310563E0
2.587324707E0,2.255868435E0,7.707184792E0,2.407403469E0,8.383628765E0
2.592237103E0,2.113793373E0,6.944857597E0,2.030936003E0,7.538160951E0
2.597149499E0,2.033142328E0,6.180520058E0,1.630910397E0,6.707634802E0
2.602061894E0,2.000157833E0,5.448010445E0,1.227274418E0,5.931918042E0
2.606974290E0,1.972411036E0,4.733301163E0,8.089816570E-1,5.191242290E0
2.611886686E0,1.864522696E0,4.034349442E0,4.271247387E-1,4.464846676E0
2.616799082E0,1.715264559E0,3.322793961E0,3.976440430E-2,3.739608725E0
2.621711478E0,1.503339291E0,2.701704979E0,-2.776458263E-1,3.104243228E0
2.626623874E0,1.199849963E0,2.132922173E0,-5.139617920E-1,2.500630651E0
2.631536269E0,8.881207108E-1,1.587740898E0,-6.215934753E-1,1.922513460E0
2.636448665E0,5.914579630E-1,1.106632233E0,-6.193466187E-1,1.399302560E0
2.641361061E0,3.284187317E-1,6.366996765E-1,-5.041890144E-1,8.760433229E-1
2.646273457E0,1.366551518E-1,2.133750916E-1,-3.442180157E-1,4.274220426E-1
2.651185853E0,-6.595420837E-2,-1.637783051E-1,-1.191315651E-1,2.129920670E-1
2.656098249E0,-3.616002798E-1,-4.999094009E-1,8.596682549E-2,6.229401790E-1
2.661010644E0,-6.628088951E-1,-8.048801422E-1,2.169990540E-1,1.065005288E0
2.665923040E0,-9.468220472E-1,-1.023946762E0,2.962093353E-1,1.425720495E0
2.670835436E0,-1.152520657E0,-1.219482422E0,3.454971313E-1,1.713128573E0
2.675747832E0,-1.234899759E0,-1.384449482E0,4.846267700E-1,1.917430804E0
2.680660228E0,-1.167639971E0,-1.523823738E0,5.679965019E-1,2.002009469E0
2.685572624E0,-1.079380035E0,-1.625725746E0,6.099920273E-1,2.044538025E0
2.690484967E0,-9.932259917E-1,-1.738033295E0,5.891308784E-1,2.086703811E0
2.695397415E0,-8.678465486E-1,-1.767372608E0,5.049602985E-1,2.032670281E0
2.700309811E0,-7.740659118E-1,-1.778180122E0,3.710801601E-1,1.974538698E0
2.705222207E0,-6.537699103E-1,-1.751109123E0,1.842801571E-1,1.878232529E0
2.710134603E0,-6.044498086E-1,-1.693065643E0,-1.585149765E-2,1.797799242E0
2.715046999E0,-5.894851089E-1,-1.675505638E0,-1.992890835E-1,1.787324250E0
2.719959394E0,-5.221923590E-1,-1.604897022E0,-3.431658745E-1,1.722249148E0
2.724871790E0,-4.667194486E-1,-1.488283157E0,-4.699380398E-1,1.629004469E0
2.729784186E0,-2.138366699E-1,-1.450150013E0,-4.624378681E-1,1.537045856E0
2.734696582E0,2.939093113E-2,-1.438181400E0,-1.884622574E-1,1.450774824E0
2.739608978E0,2.613233924E-1,-1.362028122E0,4.127411842E-1,1.446985074E0
2.744521374E0,3.289023638E-1,-1.128819466E0,9.541673660E-1,1.514214487E0
2.749433769E0,2.122844458E-1,-8.222637177E-1,1.093689442E0,1.384680072E0
2.754346165E0,1.849985123E-2,-5.950803757E-1,8.596832752E-1,1.045714221E0
2.759258561E0,-1.380589604E-1,-5.018377304E-1,5.412223339E-1,7.508814813E-1
2.764170957E0,-1.932686567E-1,-4.704418182E-1,3.291563988E-1,6.058153290E-1
2.769083353E0,-2.432946265E-1,-4.432888031E-1,2.061619759E-1,5.460769163E-1
2.773995749E0,-2.430976927E-1,-3.510017395E-1,1.049916744E-1,4.396839331E-1
2.778908144E0,-2.860762179E-1,-1.889648438E-1,7.360267639E-2,3.506631840E-1
2.783820540E0,-3.077104688E-1,-7.457542419E-2,1.100921631E-1,3.352126353E-1
2.788732936E0,-2.912023365E-1,4.000663757E-3,1.839456558E-1,3.444572694E-1
2.793645332E0,-2.820021510E-1,2.514457703E-2,3.028850555E-1,4.146044136E-1
2.798557728E0,-3.135455847E-1,6.052398682E-2,3.908138275E-1,5.046874621E-1
2.803470124E0,-3.596059382E-1,9.567070007E-2,4.434041977E-1,5.788580104E-1
2.808382519E0,-4.347256720E-1,1.257572174E-1,4.322934151E-1,6.258425396E-1
2.813294915E0,-5.079743862E-1,1.508054733E-1,3.838913441E-1,6.543338841E-1
2.818207311E0,-5.699371099E-1,1.804504395E-1,2.717912197E-1,6.567047567E-1
2.823119707E0,-6.612055302E-1,2.027959824E-1,1.030395031E-1,6.992396605E-1
2.828032103E0,-6.668753624E-1,2.107057571E-1,-1.959776878E-2,6.996454371E-1
2.832944499E0,-6.132935286E-1,2.114067078E-1,-1.130712032E-1,6.584883031E-1
2.837856894E0,-5.168998241E-1,2.431783676E-1,-1.991431713E-1,6.049621057E-1
2.842769290E0,-4.324389994E-1,2.773180008E-1,-2.732543945E-1,5.818734621E-1
2.847681738E0,-3.166193962E-1,3.138465881E-1,-3.475401402E-1,5.652713260E-1
2.852594134E0,-2.430909872E-1,3.527727127E-1,-4.245972633E-1,6.031787885E-1
2.857506530E0,-1.302520633E-1,3.582954407E-1,-5.118658543E-1,6.382381026E-1
2.862418926E0,5.177199841E-3,3.807764053E-1,-5.882734060E-1,7.007731976E-1
2.867331322E0,9.639799595E-2,3.939371109E-1,-6.373305321E-1,7.554265206E-1
2.872243717E0,1.698129773E-1,4.288816452E-1,-6.854420900E-1,8.262002007E-1
2.877156113E0,1.824555993E-1,4.568557739E-1,-7.133860588E-1,8.665603919E-1
2.882068509E0,1.150198579E-1,4.300575256E-1,-6.780178547E-1,8.111024931E-1
2.886980905E0,5.088192225E-2,4.058837891E-1,-5.815067291E-1,7.109716564E-1
2.891893301E0,-4.402029514E-2,3.699245453E-1,-4.545903206E-1,5.877366036E-1
2.896805697E0,-1.870573163E-1,3.244905472E-1,-3.158710003E-1,4.899582060E-1
2.901718092E0,-3.264304101E-1,2.695226669E-1,-1.600387096E-1,4.525612326E-1
2.906630488E0,-4.552958906E-1,1.833324432E-1,4.235601425E-2,4.926450697E-1
2.911542884E0,-5.403590202E-1,1.518859863E-1,2.248165607E-1,6.046484182E-1
2.916455332E0,-5.747341514E-1,8.657455444E-2,3.567018509E-1,6.819462652E-1
2.921367728E0,-6.737135053E-1,1.132011414E-2,4.431633949E-1,8.064811385E-1
2.926280124E0,-7.896651626E-1,-7.391166687E-2,5.730147362E-1,9.784579150E-1
2.931192519E0,-8.006772995E-1,-1.261405945E-1,7.177941799E-1,1.082692972E0
2.936104915E0,-7.401286960E-1,-1.144599915E-1,8.491737843E-1,1.132248953E0
2.941017311E0,-6.075466871E-1,-8.683109283E-2,1.017475843E0,1.188238069E0
2.945929707E0,-3.568114340E-1,-7.465362549E-3,1.136563301E0,1.191279257E0
2.950842103E0,-1.426894665E-1,9.020805359E-2,1.095975876E0,1.108900761E0
2.955754499E0,-3.525245786E-1,2.700033188E-1,1.032598019E-1,4.558924844E-1
2.960666894E0,-3.651871085E-1,8.382225037E-1,-5.401059151E0,5.477902750E0
2.965579290E0,7.179969549E-1,2.700157166E-1,-2.755738735E0,2.860511159E0
2.970491738E0,1.326081157E0,3.773212433E-2,-4.430571795E-1,1.398647422E0
2.975404134E0,1.817179322E0,2.757701874E-1,9.109885693E-1,2.051362976E0
2.980316530E0,2.001059771E0,4.398632050E-1,1.624370575E0,2.614631831E0
2.985228926E0,1.762668371E0,4.845552444E-1,1.818644047E0,2.578615858E0
2.990141322E0,1.270065546E0,2.838459015E-1,1.771059990E0,2.197791727E0
2.995053717E0,7.577051520E-1,1.232681274E-1,1.559254646E0,1.737983654E0
2.999966113E0,2.883262634E-1,8.942127228E-2,1.112489223E0,1.152718730E0
3.004878509E0,2.153992653E-3,1.250419617E-1,6.357805729E-1,6.479637866E-1
3.009790957E0,-1.059074998E-1,1.369962692E-1,2.431099415E-1,2.984741529E-1
3.014703353E0,-1.460179687E-1,8.508872986E-2,-3.087158203E-1,3.519471506E-1
3.019615749E0,-2.643644810E-1,-1.137981415E-1,-8.968228102E-1,9.418756546E-1
3.024528144E0,-3.057758808E-1,-4.571342468E-2,-1.120419264E0,1.162294254E0
3.029440540E0,-3.538946509E-1,6.178569794E-2,-1.190327525E0,1.243357758E0
3.034352936E0,-3.341526389E-1,1.439018250E-1,-1.146812797E0,1.203139772E0
3.039265332E0,-2.578983307E-1,5.932044983E-2,-1.008077502E0,1.042233522E0
